Time	Channel A
(s)	(V)

0.00000000	1.60197800
0.00100000	1.61973900
0.00200000	1.61973900
0.00300000	1.60197800
0.00400000	1.61973900
0.00500000	1.61973900
0.00600000	1.61973900
0.00700000	1.60197800
0.00800000	1.61973900
0.00900000	1.61973900
0.01000000	1.61973900
0.01100000	1.60197800
0.01200000	1.61973900
0.01300000	1.61973900
0.01400000	1.61973900
0.01500000	1.61973900
0.01600000	1.61973900
0.01700000	1.61973900
0.01800000	1.61973900
0.01900000	1.63756200
0.02000000	1.61973900
0.02100000	1.61973900
0.02200000	1.61973900
0.02300000	1.61973900
0.02400000	1.61973900
0.02500000	1.63756200
0.02600000	1.61973900
0.02700000	1.61973900
0.02800000	1.63756200
0.02900000	1.61973900
0.03000000	1.61973900
0.03100000	1.63756200
0.03200000	1.61973900
0.03300000	1.61973900
0.03400000	1.61973900
0.03500000	1.61973900
0.03600000	1.61973900
0.03700000	1.61973900
0.03800000	1.61973900
0.03900000	1.61973900
0.04000000	1.60197800
0.04100000	1.58415500
0.04200000	1.61973900
0.04300000	1.61973900
0.04400000	1.60197800
0.04500000	1.61973900
0.04600000	1.61973900
0.04700000	1.58415500
0.04800000	1.60197800
0.04900000	1.61973900
0.05000000	1.60197800
0.05100000	1.60197800
0.05200000	1.60197800
0.05300000	1.58415500
0.05400000	1.60197800
0.05500000	1.61973900
0.05600000	1.60197800
0.05700000	1.60197800
0.05800000	1.60197800
0.05900000	1.58415500
0.06000000	1.60197800
0.06100000	1.61973900
0.06200000	1.61973900
0.06300000	1.61973900
0.06400000	1.61973900
0.06500000	1.63756200
0.06600000	1.63756200
0.06700000	1.60197800
0.06800000	1.61973900
0.06900000	1.61973900
0.07000000	1.60197800
0.07100000	1.63756200
0.07200000	1.61973900
0.07300000	1.61973900
0.07400000	1.61973900
0.07500000	1.63756200
0.07600000	1.61973900
0.07700000	1.61973900
0.07800000	1.61973900
0.07900000	1.61973900
0.08000000	1.61973900
0.08100000	1.61973900
0.08200000	1.60197800
0.08300000	1.63756200
0.08400000	1.63756200
0.08500000	1.61973900
0.08600000	1.61973900
0.08700000	1.63756200
0.08800000	1.61973900
0.08900000	1.61973900
0.09000000	1.61973900
0.09100000	1.61973900
0.09200000	1.61973900
0.09300000	1.60197800
0.09400000	1.63756200
0.09500000	1.63756200
0.09600000	1.60197800
0.09700000	1.63756200
0.09800000	1.63756200
0.09900000	1.61973900
0.10000000	1.61973900
0.10100000	1.63756200
0.10200000	1.61973900
0.10300000	1.61973900
0.10400000	1.63756200
0.10500000	1.61973900
0.10600001	1.61973900
0.10700001	1.61973900
0.10800001	1.61973900
0.10900001	1.61973900
0.11000001	1.63756200
0.11100001	1.61973900
0.11200001	1.61973900
0.11300001	1.61973900
0.11400001	1.61973900
0.11500001	1.61973900
0.11600001	1.63756200
0.11700001	1.61973900
0.11800001	1.61973900
0.11900001	1.61973900
0.12000001	1.61973900
0.12100001	1.61973900
0.12200001	1.61973900
0.12300001	1.58415500
0.12400001	1.61973900
0.12500001	1.60197800
0.12600001	1.60197800
0.12700001	1.60197800
0.12800001	1.61973900
0.12900001	1.56639300
0.13000001	1.61973900
0.13100001	1.60197800
0.13200001	1.58415500
0.13300001	1.60197800
0.13400001	1.61973900
0.13500001	1.58415500
0.13600001	1.60197800
0.13700001	1.61973900
0.13800001	1.58415500
0.13900001	1.61973900
0.14000001	1.60197800
0.14100001	1.60197800
0.14200001	1.61973900
0.14300001	1.61973900
0.14400001	1.58415500
0.14500001	1.60197800
0.14600001	1.63756200
0.14700001	1.61973900
0.14800001	1.61973900
0.14900001	1.61973900
0.15000001	1.61973900
0.15100001	1.61973900
0.15200001	1.61973900
0.15300001	1.61973900
0.15400001	1.61973900
0.15500001	1.58415500
0.15600001	1.61973900
0.15700001	1.61973900
0.15800001	1.60197800
0.15900001	1.61973900
0.16000001	1.61973900
0.16100001	1.60197800
0.16200001	1.61973900
0.16300001	1.61973900
0.16400001	1.58415500
0.16500001	1.61973900
0.16600001	1.61973900
0.16700001	1.60197800
0.16800001	1.61973900
0.16900001	1.60197800
0.17000001	1.58415500
0.17100001	1.60197800
0.17200001	1.61973900
0.17300001	1.60197800
0.17400001	1.61973900
0.17500001	1.61973900
0.17600001	1.60197800
0.17700001	1.61973900
0.17800001	1.60197800
0.17900001	1.61973900
0.18000001	1.63756200
0.18100001	1.61973900
0.18200001	1.61973900
0.18300001	1.63756200
0.18400001	1.61973900
0.18500001	1.63756200
0.18600001	1.61973900
0.18700001	1.60197800
0.18800001	1.63756200
0.18900001	1.61973900
0.19000001	1.60197800
0.19100001	1.61973900
0.19200001	1.61973900
0.19300001	1.60197800
0.19400001	1.61973900
0.19500001	1.61973900
0.19600001	1.60197800
0.19700001	1.61973900
0.19800001	1.61973900
0.19900001	1.60197800
0.20000001	1.61973900
0.20100001	1.61973900
0.20200001	1.61973900
0.20300001	1.61973900
0.20400001	1.61973900
0.20500001	1.61973900
0.20600001	1.61973900
0.20700001	1.61973900
0.20800001	1.61973900
0.20900001	1.61973900
0.21000001	1.61973900
0.21100001	1.63756200
0.21200001	1.63756200
0.21300001	1.61973900
0.21400001	1.63756200
0.21500001	1.63756200
0.21600001	1.61973900
0.21700001	1.63756200
0.21800001	1.63756200
0.21900001	1.61973900
0.22000001	1.63756200
0.22100001	1.63756200
0.22200001	1.61973900
0.22300001	1.63756200
0.22400001	1.63756200
0.22500001	1.61973900
0.22600001	1.63756200
0.22700001	1.61973900
0.22800001	1.61973900
0.22900001	1.63756200
0.23000001	1.63756200
0.23100001	1.61973900
0.23200001	1.61973900
0.23300001	1.61973900
0.23400001	1.61973900
0.23500001	1.61973900
0.23600001	1.61973900
0.23700001	1.58415500
0.23800001	1.60197800
0.23900001	1.61973900
0.24000001	1.60197800
0.24100001	1.60197800
0.24200001	1.60197800
0.24300001	1.60197800
0.24400001	1.60197800
0.24500001	1.61973900
0.24600001	1.58415500
0.24700001	1.61973900
0.24800001	1.61973900
0.24900001	1.58415500
0.25000001	1.60197800
0.25100001	1.61973900
0.25200001	1.56639300
0.25300001	1.60197800
0.25400001	1.61973900
0.25500001	1.60197800
0.25600001	1.60197800
0.25700001	1.61973900
0.25800001	1.61973900
0.25900001	1.61973900
0.26000001	1.61973900
0.26100001	1.61973900
0.26200001	1.61973900
0.26300001	1.60197800
0.26400001	1.61973900
0.26500001	1.61973900
0.26600001	1.60197800
0.26700001	1.61973900
0.26800001	1.61973900
0.26900001	1.60197800
0.27000001	1.61973900
0.27100001	1.61973900
0.27200001	1.60197800
0.27300001	1.61973900
0.27400001	1.61973900
0.27500001	1.60197800
0.27600001	1.61973900
0.27700001	1.61973900
0.27800001	1.60197800
0.27900001	1.61973900
0.28000001	1.61973900
0.28100001	1.60197800
0.28200001	1.61973900
0.28300001	1.61973900
0.28400001	1.60197800
0.28500001	1.61973900
0.28600001	1.61973900
0.28700001	1.63756200
0.28800001	1.61973900
0.28900001	1.60197800
0.29000001	1.61973900
0.29100001	1.63756200
0.29200001	1.63756200
0.29300001	1.63756200
0.29400001	1.63756200
0.29500001	1.61973900
0.29600001	1.63756200
0.29700001	1.63756200
0.29800001	1.61973900
0.29900001	1.63756200
0.30000001	1.63756200
0.30100001	1.60197800
0.30200001	1.63756200
0.30300001	1.63756200
0.30400001	1.61973900
0.30500001	1.63756200
0.30600001	1.63756200
0.30700001	1.61973900
0.30800001	1.63756200
0.30900001	1.63756200
0.31000001	1.61973900
0.31100001	1.63756200
0.31200001	1.63756200
0.31300001	1.61973900
0.31400001	1.61973900
0.31500001	1.61973900
0.31600002	1.61973900
0.31700002	1.61973900
0.31800002	1.61973900
0.31900002	1.60197800
0.32000002	1.63756200
0.32100002	1.61973900
0.32200002	1.60197800
0.32300002	1.61973900
0.32400002	1.61973900
0.32500002	1.61973900
0.32600002	1.61973900
0.32700002	1.61973900
0.32800002	1.60197800
0.32900002	1.61973900
0.33000002	1.61973900
0.33100002	1.60197800
0.33200002	1.61973900
0.33300002	1.61973900
0.33400002	1.60197800
0.33500002	1.61973900
0.33600002	1.61973900
0.33700002	1.61973900
0.33800002	1.61973900
0.33900002	1.61973900
0.34000002	1.61973900
0.34100002	1.61973900
0.34200002	1.61973900
0.34300002	1.61973900
0.34400002	1.61973900
0.34500002	1.61973900
0.34600002	1.61973900
0.34700002	1.61973900
0.34800002	1.61973900
0.34900002	1.63756200
0.35000002	1.61973900
0.35100002	1.60197800
0.35200002	1.61973900
0.35300002	1.61973900
0.35400002	1.61973900
0.35500002	1.61973900
0.35600002	1.61973900
0.35700002	1.61973900
0.35800002	1.61973900
0.35900002	1.61973900
0.36000002	1.60197800
0.36100002	1.61973900
0.36200002	1.61973900
0.36300002	1.60197800
0.36400002	1.61973900
0.36500002	1.61973900
0.36600002	1.60197800
0.36700002	1.63756200
0.36800002	1.61973900
0.36900002	1.60197800
0.37000002	1.61973900
0.37100002	1.60197800
0.37200002	1.60197800
0.37300002	1.61973900
0.37400002	1.63756200
0.37500002	1.60197800
0.37600002	1.61973900
0.37700002	1.60197800
0.37800002	1.58415500
0.37900002	1.60197800
0.38000002	1.60197800
0.38100002	1.58415500
0.38200002	1.60197800
0.38300002	1.61973900
0.38400002	1.60197800
0.38500002	1.61973900
0.38600002	1.61973900
0.38700002	1.63756200
0.38800002	1.63756200
0.38900002	1.61973900
0.39000002	1.63756200
0.39100002	1.63756200
0.39200002	1.61973900
0.39300002	1.63756200
0.39400002	1.63756200
0.39500002	1.61973900
0.39600002	1.63756200
0.39700002	1.63756200
0.39800002	1.61973900
0.39900002	1.61973900
0.40000002	1.63756200
0.40100002	1.61973900
0.40200002	1.61973900
0.40300002	1.63756200
0.40400002	1.61973900
0.40500002	1.61973900
0.40600002	1.61973900
0.40700002	1.60197800
0.40800002	1.61973900
0.40900002	1.61973900
0.41000002	1.60197800
0.41100002	1.61973900
0.41200002	1.61973900
0.41300002	1.61973900
0.41400002	1.61973900
0.41500002	1.61973900
0.41600002	1.61973900
0.41700002	1.61973900
0.41800002	1.61973900
0.41900002	1.60197800
0.42000002	1.61973900
0.42100002	1.61973900
0.42200002	1.60197800
0.42300002	1.61973900
0.42400002	1.61973900
0.42500002	1.60197800
0.42600002	1.61973900
0.42700002	1.61973900
0.42800002	1.61973900
0.42900002	1.61973900
0.43000002	1.61973900
0.43100002	1.56639300
0.43200002	1.60197800
0.43300002	1.61973900
0.43400002	1.58415500
0.43500002	1.60197800
0.43600002	1.60197800
0.43700002	1.60197800
0.43800002	1.61973900
0.43900002	1.60197800
0.44000002	1.61973900
0.44100002	1.61973900
0.44200002	1.61973900
0.44300002	1.61973900
0.44400002	1.63756200
0.44500002	1.61973900
0.44600002	1.63756200
0.44700002	1.61973900
0.44800002	1.61973900
0.44900002	1.63756200
0.45000002	1.63756200
0.45100002	1.61973900
0.45200002	1.63756200
0.45300002	1.63756200
0.45400002	1.61973900
0.45500002	1.61973900
0.45600002	1.61973900
0.45700002	1.61973900
0.45800002	1.61973900
0.45900002	1.63756200
0.46000002	1.61973900
0.46100002	1.61973900
0.46200002	1.61973900
0.46300002	1.61973900
0.46400002	1.61973900
0.46500002	1.61973900
0.46600002	1.60197800
0.46700002	1.61973900
0.46800002	1.61973900
0.46900002	1.61973900
0.47000002	1.61973900
0.47100002	1.61973900
0.47200002	1.58415500
0.47300002	1.60197800
0.47400002	1.60197800
0.47500002	1.58415500
0.47600002	1.60197800
0.47700002	1.61973900
0.47800002	1.60197800
0.47900002	1.61973900
0.48000002	1.61973900
0.48100002	1.60197800
0.48200002	1.61973900
0.48300002	1.58415500
0.48400002	1.61973900
0.48500002	1.60197800
0.48600002	1.61973900
0.48700002	1.61973900
0.48800002	1.63756200
0.48900002	1.61973900
0.49000002	1.61973900
0.49100002	1.61973900
0.49200002	1.61973900
0.49300002	1.63756200
0.49400002	1.61973900
0.49500002	1.60197800
0.49600002	1.61973900
0.49700002	1.60197800
0.49800002	1.60197800
0.49900002	1.61973900
0.50000002	1.60197800
0.50100002	1.60197800
0.50200002	1.61973900
0.50300002	1.60197800
0.50400002	1.60197800
0.50500002	1.60197800
0.50600002	1.60197800
0.50700002	1.60197800
0.50800002	1.60197800
0.50900002	1.60197800
0.51000002	1.60197800
0.51100002	1.61973900
0.51200002	1.61973900
0.51300002	1.63756200
0.51400002	1.61973900
0.51500002	1.61973900
0.51600002	1.61973900
0.51700002	1.63756200
0.51800002	1.61973900
0.51900002	1.61973900
0.52000002	1.63756200
0.52100002	1.60197800
0.52200002	1.61973900
0.52300002	1.61973900
0.52400002	1.61973900
0.52500002	1.63756200
0.52600002	1.63756200
0.52700003	1.61973900
0.52800003	1.61973900
0.52900003	1.61973900
0.53000003	1.60197800
0.53100003	1.63756200
0.53200003	1.63756200
0.53300003	1.60197800
0.53400003	1.61973900
0.53500003	1.63756200
0.53600003	1.60197800
0.53700003	1.63756200
0.53800003	1.63756200
0.53900003	1.61973900
0.54000003	1.61973900
0.54100003	1.61973900
0.54200003	1.61973900
0.54300003	1.63756200
0.54400003	1.61973900
0.54500003	1.61973900
0.54600003	1.63756200
0.54700003	1.61973900
0.54800003	1.61973900
0.54900003	1.63756200
0.55000003	1.61973900
0.55100003	1.61973900
0.55200003	1.63756200
0.55300003	1.61973900
0.55400003	1.61973900
0.55500003	1.63756200
0.55600003	1.60197800
0.55700003	1.61973900
0.55800003	1.61973900
0.55900003	1.61973900
0.56000003	1.61973900
0.56100003	1.61973900
0.56200003	1.60197800
0.56300003	1.61973900
0.56400003	1.61973900
0.56500003	1.61973900
0.56600003	1.63756200
0.56700003	1.61973900
0.56800003	1.61973900
0.56900003	1.63756200
0.57000003	1.61973900
0.57100003	1.61973900
0.57200003	1.63756200
0.57300003	1.61973900
0.57400003	1.60197800
0.57500003	1.61973900
0.57600003	1.61973900
0.57700003	1.60197800
0.57800003	1.61973900
0.57900003	1.61973900
0.58000003	1.60197800
0.58100003	1.61973900
0.58200003	1.60197800
0.58300003	1.63756200
0.58400003	1.63756200
0.58500003	1.63756200
0.58600003	1.63756200
0.58700003	1.63756200
0.58800003	1.61973900
0.58900003	1.61973900
0.59000003	1.63756200
0.59100003	1.60197800
0.59200003	1.63756200
0.59300003	1.63756200
0.59400003	1.60197800
0.59500003	1.61973900
0.59600003	1.61973900
0.59700003	1.61973900
0.59800003	1.61973900
0.59900003	1.61973900
0.60000003	1.63756200
0.60100003	1.63756200
0.60200003	1.61973900
0.60300003	1.61973900
0.60400003	1.63756200
0.60500003	1.60197800
0.60600003	1.61973900
0.60700003	1.63756200
0.60800003	1.61973900
0.60900003	1.63756200
0.61000003	1.63756200
0.61100003	1.61973900
0.61200003	1.63756200
0.61300003	1.63756200
0.61400003	1.60197800
0.61500003	1.63756200
0.61600003	1.63756200
0.61700003	1.61973900
0.61800003	1.63756200
0.61900003	1.63756200
0.62000003	1.61973900
0.62100003	1.63756200
0.62200003	1.63756200
0.62300003	1.61973900
0.62400003	1.61973900
0.62500003	1.63756200
0.62600003	1.61973900
0.62700003	1.61973900
0.62800003	1.63756200
0.62900003	1.63756200
0.63000003	1.63756200
0.63100003	1.61973900
0.63200003	1.61973900
0.63300003	1.61973900
0.63400003	1.61973900
0.63500003	1.61973900
0.63600003	1.61973900
0.63700003	1.61973900
0.63800003	1.61973900
0.63900003	1.63756200
0.64000003	1.60197800
0.64100003	1.61973900
0.64200003	1.63756200
0.64300003	1.61973900
0.64400003	1.61973900
0.64500003	1.63756200
0.64600003	1.61973900
0.64700003	1.63756200
0.64800003	1.63756200
0.64900003	1.61973900
0.65000003	1.61973900
0.65100003	1.65538500
0.65200003	1.61973900
0.65300003	1.61973900
0.65400003	1.61973900
0.65500003	1.60197800
0.65600003	1.61973900
0.65700003	1.61973900
0.65800003	1.60197800
0.65900003	1.61973900
0.66000003	1.61973900
0.66100003	1.60197800
0.66200003	1.61973900
0.66300003	1.61973900
0.66400003	1.61973900
0.66500003	1.61973900
0.66600003	1.61973900
0.66700003	1.60197800
0.66800003	1.61973900
0.66900003	1.61973900
0.67000003	1.60197800
0.67100003	1.61973900
0.67200003	1.61973900
0.67300003	1.61973900
0.67400003	1.61973900
0.67500003	1.63756200
0.67600003	1.60197800
0.67700003	1.61973900
0.67800003	1.61973900
0.67900003	1.60197800
0.68000003	1.61973900
0.68100003	1.61973900
0.68200003	1.61973900
0.68300003	1.61973900
0.68400003	1.61973900
0.68500003	1.61973900
0.68600003	1.61973900
0.68700003	1.61973900
0.68800003	1.61973900
0.68900003	1.63756200
0.69000003	1.61973900
0.69100003	1.61973900
0.69200003	1.61973900
0.69300003	1.61973900
0.69400003	1.61973900
0.69500003	1.63756200
0.69600003	1.61973900
0.69700003	1.63756200
0.69800003	1.61973900
0.69900003	1.61973900
0.70000003	1.61973900
0.70100003	1.63756200
0.70200003	1.60197800
0.70300003	1.61973900
0.70400003	1.61973900
0.70500003	1.60197800
0.70600003	1.63756200
0.70700003	1.63756200
0.70800003	1.61973900
0.70900003	1.61973900
0.71000003	1.61973900
0.71100003	1.61973900
0.71200003	1.61973900
0.71300003	1.61973900
0.71400003	1.63756200
0.71500003	1.63756200
0.71600003	1.61973900
0.71700003	1.61973900
0.71800003	1.63756200
0.71900003	1.61973900
0.72000003	1.61973900
0.72100003	1.63756200
0.72200003	1.61973900
0.72300003	1.63756200
0.72400003	1.61973900
0.72500003	1.60197800
0.72600003	1.61973900
0.72700003	1.63756200
0.72800003	1.61973900
0.72900003	1.61973900
0.73000003	1.63756200
0.73100003	1.61973900
0.73200003	1.61973900
0.73300003	1.63756200
0.73400003	1.61973900
0.73500003	1.61973900
0.73600003	1.61973900
0.73700004	1.61973900
0.73800004	1.60197800
0.73900004	1.61973900
0.74000004	1.61973900
0.74100004	1.63756200
0.74200004	1.61973900
0.74300004	1.60197800
0.74400004	1.61973900
0.74500004	1.61973900
0.74600004	1.61973900
0.74700004	1.63756200
0.74800004	1.61973900
0.74900004	1.60197800
0.75000004	1.61973900
0.75100004	1.61973900
0.75200004	1.60197800
0.75300004	1.61973900
0.75400004	1.61973900
0.75500004	1.58415500
0.75600004	1.60197800
0.75700004	1.60197800
0.75800004	1.60197800
0.75900004	1.61973900
0.76000004	1.61973900
0.76100004	1.58415500
0.76200004	1.60197800
0.76300004	1.61973900
0.76400004	1.60197800
0.76500004	1.61973900
0.76600004	1.61973900
0.76700004	1.61973900
0.76800004	1.61973900
0.76900004	1.61973900
0.77000004	1.61973900
0.77100004	1.63756200
0.77200004	1.60197800
0.77300004	1.61973900
0.77400004	1.61973900
0.77500004	1.61973900
0.77600004	1.61973900
0.77700004	1.61973900
0.77800004	1.61973900
0.77900004	1.61973900
0.78000004	1.61973900
0.78100004	1.60197800
0.78200004	1.61973900
0.78300004	1.61973900
0.78400004	1.60197800
0.78500004	1.61973900
0.78600004	1.61973900
0.78700004	1.60197800
0.78800004	1.61973900
0.78900004	1.61973900
0.79000004	1.60197800
0.79100004	1.61973900
0.79200004	1.63756200
0.79300004	1.61973900
0.79400004	1.61973900
0.79500004	1.61973900
0.79600004	1.60197800
0.79700004	1.63756200
0.79800004	1.60197800
0.79900004	1.61973900
0.80000004	1.63756200
0.80100004	1.60197800
0.80200004	1.61973900
0.80300004	1.63756200
0.80400004	1.61973900
0.80500004	1.63756200
0.80600004	1.61973900
0.80700004	1.60197800
0.80800004	1.61973900
0.80900004	1.61973900
0.81000004	1.60197800
0.81100004	1.61973900
0.81200004	1.61973900
0.81300004	1.58415500
0.81400004	1.61973900
0.81500004	1.61973900
0.81600004	1.60197800
0.81700004	1.60197800
0.81800004	1.61973900
0.81900004	1.58415500
0.82000004	1.60197800
0.82100004	1.61973900
0.82200004	1.61973900
0.82300004	1.61973900
0.82400004	1.61973900
0.82500004	1.60197800
0.82600004	1.63756200
0.82700004	1.60197800
0.82800004	1.63756200
0.82900004	1.61973900
0.83000004	1.61973900
0.83100004	1.61973900
0.83200004	1.61973900
0.83300004	1.61973900
0.83400004	1.63756200
0.83500004	1.61973900
0.83600004	1.60197800
0.83700004	1.63756200
0.83800004	1.63756200
0.83900004	1.60197800
0.84000004	1.63756200
0.84100004	1.61973900
0.84200004	1.61973900
0.84300004	1.61973900
0.84400004	1.61973900
0.84500004	1.61973900
0.84600004	1.63756200
0.84700004	1.63756200
0.84800004	1.61973900
0.84900004	1.61973900
0.85000004	1.61973900
0.85100004	1.61973900
0.85200004	1.61973900
0.85300004	1.61973900
0.85400004	1.58415500
0.85500004	1.60197800
0.85600004	1.61973900
0.85700004	1.60197800
0.85800004	1.60197800
0.85900004	1.61973900
0.86000004	1.58415500
0.86100004	1.63756200
0.86200004	1.61973900
0.86300004	1.63756200
0.86400004	1.63756200
0.86500004	1.61973900
0.86600004	1.63756200
0.86700004	1.63756200
0.86800004	1.61973900
0.86900004	1.63756200
0.87000004	1.63756200
0.87100004	1.61973900
0.87200004	1.63756200
0.87300004	1.63756200
0.87400004	1.60197800
0.87500004	1.63756200
0.87600004	1.63756200
0.87700004	1.61973900
0.87800004	1.61973900
0.87900004	1.61973900
0.88000004	1.61973900
0.88100004	1.61973900
0.88200004	1.61973900
0.88300004	1.60197800
0.88400004	1.61973900
0.88500004	1.61973900
0.88600004	1.60197800
0.88700004	1.61973900
0.88800004	1.61973900
0.88900004	1.60197800
0.89000004	1.61973900
0.89100004	1.61973900
0.89200004	1.60197800
0.89300004	1.61973900
0.89400004	1.61973900
0.89500004	1.60197800
0.89600004	1.61973900
0.89700004	1.63756200
0.89800004	1.60197800
0.89900004	1.63756200
0.90000004	1.61973900
0.90100004	1.60197800
0.90200004	1.61973900
0.90300004	1.61973900
0.90400004	1.60197800
0.90500004	1.61973900
0.90600004	1.61973900
0.90700004	1.61973900
0.90800004	1.61973900
0.90900004	1.61973900
0.91000004	1.63756200
0.91100004	1.63756200
0.91200004	1.60197800
0.91300004	1.63756200
0.91400004	1.63756200
0.91500004	1.61973900
0.91600004	1.63756200
0.91700004	1.63756200
0.91800004	1.61973900
0.91900004	1.61973900
0.92000004	1.63756200
0.92100004	1.61973900
0.92200004	1.61973900
0.92300004	1.63756200
0.92400004	1.61973900
0.92500004	1.61973900
0.92600004	1.63756200
0.92700004	1.61973900
0.92800004	1.61973900
0.92900004	1.61973900
0.93000004	1.61973900
0.93100004	1.61973900
0.93200004	1.61973900
0.93300004	1.61973900
0.93400004	1.61973900
0.93500004	1.61973900
0.93600004	1.61973900
0.93700004	1.61973900
0.93800004	1.63756200
0.93900004	1.61973900
0.94000004	1.61973900
0.94100004	1.61973900
0.94200004	1.60197800
0.94300004	1.61973900
0.94400004	1.61973900
0.94500004	1.60197800
0.94600004	1.63756200
0.94700004	1.61973900
0.94800005	1.61973900
0.94900005	1.61973900
0.95000005	1.61973900
0.95100005	1.60197800
0.95200005	1.60197800
0.95300005	1.61973900
0.95400005	1.58415500
0.95500005	1.63756200
0.95600005	1.60197800
0.95700005	1.61973900
0.95800005	1.63756200
0.95900005	1.61973900
0.96000005	1.63756200
0.96100005	1.61973900
0.96200005	1.61973900
0.96300005	1.61973900
0.96400005	1.61973900
0.96500005	1.61973900
0.96600005	1.61973900
0.96700005	1.61973900
0.96800005	1.61973900
0.96900005	1.61973900
0.97000005	1.61973900
0.97100005	1.60197800
0.97200005	1.61973900
0.97300005	1.63756200
0.97400005	1.61973900
0.97500005	1.63756200
0.97600005	1.63756200
0.97700005	1.61973900
0.97800005	1.61973900
0.97900005	1.61973900
0.98000005	1.61973900
0.98100005	1.61973900
0.98200005	1.61973900
0.98300005	1.60197800
0.98400005	1.61973900
0.98500005	1.61973900
0.98600005	1.60197800
0.98700005	1.61973900
0.98800005	1.61973900
0.98900005	1.61973900
0.99000005	1.61973900
0.99100005	1.61973900
0.99200005	1.63756200
0.99300005	1.61973900
0.99400005	1.61973900
0.99500005	1.63756200
0.99600005	1.63756200
0.99700005	1.61973900
0.99800005	1.63756200
0.99900005	1.63756200
1.00000005	1.61973900
1.00100005	1.63756200
1.00200005	1.63756200
1.00300005	1.61973900
1.00400005	1.61973900
1.00500005	1.63756200
1.00600005	1.61973900
1.00700005	1.63756200
1.00800005	1.63756200
1.00900005	1.61973900
1.01000005	1.61973900
1.01100005	1.63756200
1.01200005	1.61973900
1.01300005	1.63756200
1.01400005	1.63756200
1.01500005	1.61973900
1.01600005	1.63756200
1.01700005	1.63756200
1.01800005	1.61973900
1.01900005	1.61973900
1.02000005	1.61973900
1.02100005	1.61973900
1.02200005	1.63756200
1.02300005	1.63756200
1.02400005	1.61973900
1.02500005	1.63756200
1.02600005	1.63756200
1.02700005	1.61973900
1.02800005	1.63756200
1.02900005	1.63756200
1.03000005	1.61973900
1.03100005	1.63756200
1.03200005	1.63756200
1.03300005	1.61973900
1.03400005	1.63756200
1.03500005	1.63756200
1.03600005	1.61973900
1.03700005	1.63756200
1.03800005	1.63756200
1.03900005	1.61973900
1.04000005	1.63756200
1.04100005	1.63756200
1.04200005	1.60197800
1.04300005	1.61973900
1.04400005	1.63756200
1.04500005	1.60197800
1.04600005	1.61973900
1.04700005	1.61973900
1.04800005	1.61973900
1.04900005	1.61973900
1.05000005	1.63756200
1.05100005	1.61973900
1.05200005	1.61973900
1.05300005	1.63756200
1.05400005	1.61973900
1.05500005	1.61973900
1.05600005	1.63756200
1.05700005	1.61973900
1.05800005	1.61973900
1.05900005	1.63756200
1.06000005	1.61973900
1.06100005	1.61973900
1.06200005	1.63756200
1.06300005	1.60197800
1.06400005	1.61973900
1.06500005	1.63756200
1.06600005	1.60197800
1.06700005	1.61973900
1.06800005	1.63756200
1.06900005	1.61973900
1.07000005	1.61973900
1.07100005	1.61973900
1.07200005	1.60197800
1.07300005	1.61973900
1.07400005	1.61973900
1.07500005	1.61973900
1.07600005	1.61973900
1.07700005	1.63756200
1.07800005	1.63756200
1.07900005	1.61973900
1.08000005	1.61973900
1.08100005	1.63756200
1.08200005	1.63756200
1.08300005	1.61973900
1.08400005	1.63756200
1.08500005	1.63756200
1.08600005	1.61973900
1.08700005	1.63756200
1.08800005	1.63756200
1.08900005	1.61973900
1.09000005	1.63756200
1.09100005	1.63756200
1.09200005	1.61973900
1.09300005	1.63756200
1.09400005	1.63756200
1.09500005	1.61973900
1.09600005	1.63756200
1.09700005	1.63756200
1.09800005	1.61973900
1.09900005	1.63756200
1.10000005	1.63756200
1.10100005	1.61973900
1.10200005	1.60197800
1.10300005	1.58415500
1.10400005	1.61973900
1.10500005	1.61973900
1.10600005	1.61973900
1.10700005	1.60197800
1.10800005	1.61973900
1.10900005	1.61973900
1.11000005	1.60197800
1.11100005	1.63756200
1.11200005	1.61973900
1.11300005	1.61973900
1.11400005	1.63756200
1.11500005	1.61973900
1.11600005	1.60197800
1.11700005	1.61973900
1.11800005	1.61973900
1.11900005	1.63756200
1.12000005	1.63756200
1.12100005	1.61973900
1.12200005	1.63756200
1.12300005	1.63756200
1.12400005	1.61973900
1.12500005	1.63756200
1.12600005	1.63756200
1.12700005	1.61973900
1.12800005	1.61973900
1.12900005	1.63756200
1.13000005	1.60197800
1.13100005	1.61973900
1.13200005	1.61973900
1.13300005	1.61973900
1.13400005	1.60197800
1.13500005	1.61973900
1.13600005	1.61973900
1.13700005	1.61973900
1.13800005	1.61973900
1.13900005	1.58415500
1.14000005	1.63756200
1.14100005	1.61973900
1.14200005	1.63756200
1.14300005	1.61973900
1.14400005	1.61973900
1.14500005	1.60197800
1.14600005	1.61973900
1.14700005	1.61973900
1.14800005	1.63756200
1.14900005	1.61973900
1.15000005	1.61973900
1.15100005	1.63756200
1.15200005	1.63756200
1.15300005	1.61973900
1.15400005	1.63756200
1.15500005	1.63756200
1.15600005	1.61973900
1.15700005	1.63756200
1.15800006	1.61973900
1.15900006	1.61973900
1.16000006	1.61973900
1.16100006	1.63756200
1.16200006	1.60197800
1.16300006	1.60197800
1.16400006	1.60197800
1.16500006	1.60197800
1.16600006	1.60197800
1.16700006	1.60197800
1.16800006	1.58415500
1.16900006	1.61973900
1.17000006	1.61973900
1.17100006	1.60197800
1.17200006	1.61973900
1.17300006	1.61973900
1.17400006	1.61973900
1.17500006	1.63756200
1.17600006	1.61973900
1.17700006	1.61973900
1.17800006	1.61973900
1.17900006	1.61973900
1.18000006	1.60197800
1.18100006	1.61973900
1.18200006	1.61973900
1.18300006	1.61973900
1.18400006	1.61973900
1.18500006	1.61973900
1.18600006	1.61973900
1.18700006	1.61973900
1.18800006	1.61973900
1.18900006	1.61973900
1.19000006	1.61973900
1.19100006	1.60197800
1.19200006	1.61973900
1.19300006	1.61973900
1.19400006	1.60197800
1.19500006	1.61973900
1.19600006	1.61973900
1.19700006	1.60197800
1.19800006	1.61973900
1.19900006	1.60197800
1.20000006	1.60197800
1.20100006	1.61973900
1.20200006	1.60197800
1.20300006	1.58415500
1.20400006	1.60197800
1.20500006	1.60197800
1.20600006	1.58415500
1.20700006	1.60197800
1.20800006	1.61973900
1.20900006	1.58415500
1.21000006	1.60197800
1.21100006	1.61973900
1.21200006	1.58415500
1.21300006	1.60197800
1.21400006	1.60197800
1.21500006	1.61973900
1.21600006	1.60197800
1.21700006	1.61973900
1.21800006	1.61973900
1.21900006	1.63756200
1.22000006	1.61973900
1.22100006	1.61973900
1.22200006	1.63756200
1.22300006	1.61973900
1.22400006	1.61973900
1.22500006	1.63756200
1.22600006	1.61973900
1.22700006	1.61973900
1.22800006	1.63756200
1.22900006	1.60197800
1.23000006	1.61973900
1.23100006	1.63756200
1.23200006	1.61973900
1.23300006	1.61973900
1.23400006	1.63756200
1.23500006	1.60197800
1.23600006	1.61973900
1.23700006	1.63756200
1.23800006	1.61973900
1.23900006	1.63756200
1.24000006	1.63756200
1.24100006	1.61973900
1.24200006	1.61973900
1.24300006	1.61973900
1.24400006	1.61973900
1.24500006	1.61973900
1.24600006	1.61973900
1.24700006	1.63756200
1.24800006	1.61973900
1.24900006	1.61973900
1.25000006	1.60197800
1.25100006	1.60197800
1.25200006	1.61973900
1.25300006	1.60197800
1.25400006	1.61973900
1.25500006	1.61973900
1.25600006	1.61973900
1.25700006	1.61973900
1.25800006	1.61973900
1.25900006	1.61973900
1.26000006	1.60197800
1.26100006	1.61973900
1.26200006	1.61973900
1.26300006	1.60197800
1.26400006	1.61973900
1.26500006	1.60197800
1.26600006	1.60197800
1.26700006	1.61973900
1.26800006	1.58415500
1.26900006	1.60197800
1.27000006	1.61973900
1.27100006	1.61973900
1.27200006	1.61973900
1.27300006	1.61973900
1.27400006	1.61973900
1.27500006	1.61973900
1.27600006	1.60197800
1.27700006	1.61973900
1.27800006	1.61973900
1.27900006	1.60197800
1.28000006	1.61973900
1.28100006	1.60197800
1.28200006	1.60197800
1.28300006	1.60197800
1.28400006	1.60197800
1.28500006	1.58415500
1.28600006	1.60197800
1.28700006	1.61973900
1.28800006	1.60197800
1.28900006	1.61973900
1.29000006	1.61973900
1.29100006	1.60197800
1.29200006	1.61973900
1.29300006	1.61973900
1.29400006	1.60197800
1.29500006	1.61973900
1.29600006	1.63756200
1.29700006	1.60197800
1.29800006	1.61973900
1.29900006	1.58415500
1.30000006	1.61973900
1.30100006	1.60197800
1.30200006	1.61973900
1.30300006	1.61973900
1.30400006	1.61973900
1.30500006	1.61973900
1.30600006	1.61973900
1.30700006	1.61973900
1.30800006	1.61973900
1.30900006	1.63756200
1.31000006	1.61973900
1.31100006	1.61973900
1.31200006	1.61973900
1.31300006	1.61973900
1.31400006	1.60197800
1.31500006	1.63756200
1.31600006	1.63756200
1.31700006	1.61973900
1.31800006	1.61973900
1.31900006	1.63756200
1.32000006	1.61973900
1.32100006	1.61973900
1.32200006	1.63756200
1.32300006	1.60197800
1.32400006	1.61973900
1.32500006	1.61973900
1.32600006	1.61973900
1.32700006	1.61973900
1.32800006	1.61973900
1.32900006	1.61973900
1.33000006	1.61973900
1.33100006	1.61973900
1.33200006	1.60197800
1.33300006	1.60197800
1.33400006	1.61973900
1.33500006	1.60197800
1.33600006	1.61973900
1.33700006	1.61973900
1.33800006	1.58415500
1.33900006	1.60197800
1.34000006	1.61973900
1.34100006	1.60197800
1.34200006	1.63756200
1.34300006	1.61973900
1.34400006	1.60197800
1.34500006	1.61973900
1.34600006	1.60197800
1.34700006	1.60197800
1.34800006	1.61973900
1.34900006	1.60197800
1.35000006	1.60197800
1.35100006	1.60197800
1.35200006	1.61973900
1.35300006	1.60197800
1.35400006	1.61973900
1.35500006	1.63756200
1.35600006	1.61973900
1.35700006	1.61973900
1.35800006	1.61973900
1.35900006	1.58415500
1.36000006	1.60197800
1.36100006	1.60197800
1.36200006	1.60197800
1.36300006	1.61973900
1.36400006	1.60197800
1.36500006	1.60197800
1.36600006	1.60197800
1.36700006	1.61973900
1.36800006	1.60197800
1.36900007	1.61973900
1.37000007	1.61973900
1.37100007	1.60197800
1.37200007	1.60197800
1.37300007	1.61973900
1.37400007	1.60197800
1.37500007	1.60197800
1.37600007	1.61973900
1.37700007	1.60197800
1.37800007	1.60197800
1.37900007	1.61973900
1.38000007	1.60197800
1.38100007	1.60197800
1.38200007	1.61973900
1.38300007	1.61973900
1.38400007	1.61973900
1.38500007	1.61973900
1.38600007	1.61973900
1.38700007	1.61973900
1.38800007	1.61973900
1.38900007	1.61973900
1.39000007	1.61973900
1.39100007	1.61973900
1.39200007	1.63756200
1.39300007	1.61973900
1.39400007	1.61973900
1.39500007	1.61973900
1.39600007	1.63756200
1.39700007	1.60197800
1.39800007	1.61973900
1.39900007	1.63756200
1.40000007	1.60197800
1.40100007	1.61973900
1.40200007	1.63756200
1.40300007	1.61973900
1.40400007	1.61973900
1.40500007	1.60197800
1.40600007	1.60197800
1.40700007	1.61973900
1.40800007	1.60197800
1.40900007	1.58415500
1.41000007	1.61973900
1.41100007	1.61973900
1.41200007	1.61973900
1.41300007	1.61973900
1.41400007	1.61973900
1.41500007	1.61973900
1.41600007	1.63756200
1.41700007	1.61973900
1.41800007	1.61973900
1.41900007	1.61973900
1.42000007	1.61973900
1.42100007	1.61973900
1.42200007	1.63756200
1.42300007	1.61973900
1.42400007	1.61973900
1.42500007	1.63756200
1.42600007	1.60197800
1.42700007	1.61973900
1.42800007	1.61973900
1.42900007	1.61973900
1.43000007	1.63756200
1.43100007	1.63756200
1.43200007	1.61973900
1.43300007	1.61973900
1.43400007	1.61973900
1.43500007	1.60197800
1.43600007	1.61973900
1.43700007	1.61973900
1.43800007	1.60197800
1.43900007	1.61973900
1.44000007	1.63756200
1.44100007	1.61973900
1.44200007	1.61973900
1.44300007	1.61973900
1.44400007	1.63756200
1.44500007	1.63756200
1.44600007	1.61973900
1.44700007	1.63756200
1.44800007	1.63756200
1.44900007	1.61973900
1.45000007	1.61973900
1.45100007	1.63756200
1.45200007	1.61973900
1.45300007	1.61973900
1.45400007	1.61973900
1.45500007	1.61973900
1.45600007	1.61973900
1.45700007	1.61973900
1.45800007	1.60197800
1.45900007	1.61973900
1.46000007	1.61973900
1.46100007	1.60197800
1.46200007	1.61973900
1.46300007	1.61973900
1.46400007	1.61973900
1.46500007	1.61973900
1.46600007	1.61973900
1.46700007	1.61973900
1.46800007	1.61973900
1.46900007	1.61973900
1.47000007	1.61973900
1.47100007	1.61973900
1.47200007	1.61973900
1.47300007	1.61973900
1.47400007	1.61973900
1.47500007	1.61973900
1.47600007	1.63756200
1.47700007	1.63756200
1.47800007	1.61973900
1.47900007	1.63756200
1.48000007	1.61973900
1.48100007	1.61973900
1.48200007	1.61973900
1.48300007	1.63756200
1.48400007	1.61973900
1.48500007	1.63756200
1.48600007	1.63756200
1.48700007	1.61973900
1.48800007	1.63756200
1.48900007	1.63756200
1.49000007	1.61973900
1.49100007	1.63756200
1.49200007	1.63756200
1.49300007	1.61973900
1.49400007	1.63756200
1.49500007	1.60197800
1.49600007	1.61973900
1.49700007	1.61973900
1.49800007	1.61973900
1.49900007	1.61973900
1.50000007	1.61973900
1.50100007	1.63756200
1.50200007	1.61973900
1.50300007	1.61973900
1.50400007	1.61973900
1.50500007	1.60197800
1.50600007	1.61973900
1.50700007	1.61973900
1.50800007	1.60197800
1.50900007	1.63756200
1.51000007	1.60197800
1.51100007	1.60197800
1.51200007	1.61973900
1.51300007	1.60197800
1.51400007	1.60197800
1.51500007	1.61973900
1.51600007	1.61973900
1.51700007	1.60197800
1.51800007	1.61973900
1.51900007	1.63756200
1.52000007	1.60197800
1.52100007	1.61973900
1.52200007	1.63756200
1.52300007	1.61973900
1.52400007	1.61973900
1.52500007	1.61973900
1.52600007	1.61973900
1.52700007	1.61973900
1.52800007	1.61973900
1.52900007	1.63756200
1.53000007	1.61973900
1.53100007	1.61973900
1.53200007	1.61973900
1.53300007	1.63756200
1.53400007	1.61973900
1.53500007	1.61973900
1.53600007	1.63756200
1.53700007	1.61973900
1.53800007	1.61973900
1.53900007	1.63756200
1.54000007	1.61973900
1.54100007	1.63756200
1.54200007	1.63756200
1.54300007	1.61973900
1.54400007	1.63756200
1.54500007	1.63756200
1.54600007	1.61973900
1.54700007	1.63756200
1.54800007	1.63756200
1.54900007	1.61973900
1.55000007	1.63756200
1.55100007	1.61973900
1.55200007	1.61973900
1.55300007	1.61973900
1.55400007	1.61973900
1.55500007	1.61973900
1.55600007	1.61973900
1.55700007	1.61973900
1.55800007	1.61973900
1.55900007	1.61973900
1.56000007	1.60197800
1.56100007	1.61973900
1.56200007	1.61973900
1.56300007	1.61973900
1.56400007	1.60197800
1.56500007	1.63756200
1.56600007	1.61973900
1.56700007	1.61973900
1.56800007	1.61973900
1.56900007	1.61973900
1.57000007	1.60197800
1.57100007	1.63756200
1.57200007	1.61973900
1.57300007	1.61973900
1.57400007	1.61973900
1.57500007	1.63756200
1.57600007	1.60197800
1.57700007	1.61973900
1.57800007	1.60197800
1.57900007	1.61973900
1.58000008	1.61973900
1.58100008	1.61973900
1.58200008	1.61973900
1.58300008	1.61973900
1.58400008	1.61973900
1.58500008	1.63756200
1.58600008	1.63756200
1.58700008	1.61973900
1.58800008	1.63756200
1.58900008	1.63756200
1.59000008	1.61973900
1.59100008	1.63756200
1.59200008	1.63756200
1.59300008	1.61973900
1.59400008	1.63756200
1.59500008	1.63756200
1.59600008	1.61973900
1.59700008	1.63756200
1.59800008	1.63756200
1.59900008	1.61973900
1.60000008	1.63756200
1.60100008	1.63756200
1.60200008	1.61973900
1.60300008	1.63756200
1.60400008	1.63756200
1.60500008	1.61973900
1.60600008	1.63756200
1.60700008	1.61973900
1.60800008	1.61973900
1.60900008	1.61973900
1.61000008	1.61973900
1.61100008	1.61973900
1.61200008	1.61973900
1.61300008	1.61973900
1.61400008	1.60197800
1.61500008	1.61973900
1.61600008	1.61973900
1.61700008	1.56639300
1.61800008	1.60197800
1.61900008	1.61973900
1.62000008	1.60197800
1.62100008	1.61973900
1.62200008	1.61973900
1.62300008	1.60197800
1.62400008	1.60197800
1.62500008	1.61973900
1.62600008	1.60197800
1.62700008	1.60197800
1.62800008	1.61973900
1.62900008	1.63756200
1.63000008	1.63756200
1.63100008	1.61973900
1.63200008	1.63756200
1.63300008	1.61973900
1.63400008	1.61973900
1.63500008	1.63756200
1.63600008	1.63756200
1.63700008	1.63756200
1.63800008	1.61973900
1.63900008	1.61973900
1.64000008	1.61973900
1.64100008	1.63756200
1.64200008	1.63756200
1.64300008	1.61973900
1.64400008	1.61973900
1.64500008	1.63756200
1.64600008	1.61973900
1.64700008	1.61973900
1.64800008	1.61973900
1.64900008	1.60197800
1.65000008	1.61973900
1.65100008	1.61973900
1.65200008	1.61973900
1.65300008	1.61973900
1.65400008	1.61973900
1.65500008	1.61973900
1.65600008	1.61973900
1.65700008	1.60197800
1.65800008	1.60197800
1.65900008	1.61973900
1.66000008	1.61973900
1.66100008	1.60197800
1.66200008	1.61973900
1.66300008	1.61973900
1.66400008	1.61973900
1.66500008	1.61973900
1.66600008	1.61973900
1.66700008	1.61973900
1.66800008	1.61973900
1.66900008	1.61973900
1.67000008	1.60197800
1.67100008	1.61973900
1.67200008	1.61973900
1.67300008	1.63756200
1.67400008	1.63756200
1.67500008	1.61973900
1.67600008	1.63756200
1.67700008	1.63756200
1.67800008	1.61973900
1.67900008	1.63756200
1.68000008	1.63756200
1.68100008	1.61973900
1.68200008	1.63756200
1.68300008	1.63756200
1.68400008	1.61973900
1.68500008	1.63756200
1.68600008	1.63756200
1.68700008	1.60197800
1.68800008	1.61973900
1.68900008	1.61973900
1.69000008	1.61973900
1.69100008	1.61973900
1.69200008	1.61973900
1.69300008	1.61973900
1.69400008	1.61973900
1.69500008	1.61973900
1.69600008	1.61973900
1.69700008	1.61973900
1.69800008	1.61973900
1.69900008	1.58415500
1.70000008	1.60197800
1.70100008	1.61973900
1.70200008	1.61973900
1.70300008	1.61973900
1.70400008	1.61973900
1.70500008	1.58415500
1.70600008	1.61973900
1.70700008	1.61973900
1.70800008	1.61973900
1.70900008	1.61973900
1.71000008	1.61973900
1.71100008	1.60197800
1.71200008	1.61973900
1.71300008	1.61973900
1.71400008	1.61973900
1.71500008	1.61973900
1.71600008	1.60197800
1.71700008	1.60197800
1.71800008	1.61973900
1.71900008	1.60197800
1.72000008	1.61973900
1.72100008	1.61973900
1.72200008	1.61973900
1.72300008	1.61973900
1.72400008	1.61973900
1.72500008	1.61973900
1.72600008	1.63756200
1.72700008	1.61973900
1.72800008	1.61973900
1.72900008	1.58415500
1.73000008	1.61973900
1.73100008	1.61973900
1.73200008	1.63756200
1.73300008	1.63756200
1.73400008	1.61973900
1.73500008	1.58415500
1.73600008	1.61973900
1.73700008	1.61973900
1.73800008	1.61973900
1.73900008	1.63756200
1.74000008	1.61973900
1.74100008	1.60197800
1.74200008	1.61973900
1.74300008	1.61973900
1.74400008	1.63756200
1.74500008	1.61973900
1.74600008	1.61973900
1.74700008	1.60197800
1.74800008	1.61973900
1.74900008	1.61973900
1.75000008	1.61973900
1.75100008	1.61973900
1.75200008	1.61973900
1.75300008	1.61973900
1.75400008	1.61973900
1.75500008	1.60197800
1.75600008	1.61973900
1.75700008	1.60197800
1.75800008	1.60197800
1.75900008	1.60197800
1.76000008	1.61973900
1.76100008	1.58415500
1.76200008	1.61973900
1.76300008	1.61973900
1.76400008	1.60197800
1.76500008	1.60197800
1.76600008	1.61973900
1.76700008	1.60197800
1.76800008	1.61973900
1.76900008	1.61973900
1.77000008	1.61973900
1.77100008	1.63756200
1.77200008	1.61973900
1.77300008	1.60197800
1.77400008	1.61973900
1.77500008	1.61973900
1.77600008	1.60197800
1.77700008	1.61973900
1.77800008	1.61973900
1.77900008	1.61973900
1.78000008	1.61973900
1.78100008	1.61973900
1.78200008	1.61973900
1.78300008	1.61973900
1.78400008	1.61973900
1.78500008	1.63756200
1.78600008	1.63756200
1.78700008	1.60197800
1.78800008	1.63756200
1.78900008	1.61973900
1.79000009	1.60197800
1.79100009	1.63756200
1.79200009	1.61973900
1.79300009	1.60197800
1.79400009	1.61973900
1.79500009	1.61973900
1.79600009	1.61973900
1.79700009	1.61973900
1.79800009	1.61973900
1.79900009	1.60197800
1.80000009	1.61973900
1.80100009	1.60197800
1.80200009	1.61973900
1.80300009	1.61973900
1.80400009	1.61973900
1.80500009	1.61973900
1.80600009	1.61973900
1.80700009	1.61973900
1.80800009	1.61973900
1.80900009	1.60197800
1.81000009	1.61973900
1.81100009	1.60197800
1.81200009	1.61973900
1.81300009	1.61973900
1.81400009	1.60197800
1.81500009	1.60197800
1.81600009	1.61973900
1.81700009	1.58415500
1.81800009	1.60197800
1.81900009	1.60197800
1.82000009	1.60197800
1.82100009	1.61973900
1.82200009	1.61973900
1.82300009	1.58415500
1.82400009	1.60197800
1.82500009	1.61973900
1.82600009	1.58415500
1.82700009	1.60197800
1.82800009	1.61973900
1.82900009	1.58415500
1.83000009	1.63756200
1.83100009	1.61973900
1.83200009	1.61973900
1.83300009	1.61973900
1.83400009	1.61973900
1.83500009	1.61973900
1.83600009	1.61973900
1.83700009	1.60197800
1.83800009	1.61973900
1.83900009	1.61973900
1.84000009	1.60197800
1.84100009	1.63756200
1.84200009	1.61973900
1.84300009	1.60197800
1.84400009	1.63756200
1.84500009	1.61973900
1.84600009	1.60197800
1.84700009	1.61973900
1.84800009	1.60197800
1.84900009	1.60197800
1.85000009	1.61973900
1.85100009	1.61973900
1.85200009	1.60197800
1.85300009	1.60197800
1.85400009	1.60197800
1.85500009	1.58415500
1.85600009	1.61973900
1.85700009	1.61973900
1.85800009	1.58415500
1.85900009	1.60197800
1.86000009	1.61973900
1.86100009	1.61973900
1.86200009	1.61973900
1.86300009	1.61973900
1.86400009	1.61973900
1.86500009	1.61973900
1.86600009	1.61973900
1.86700009	1.61973900
1.86800009	1.63756200
1.86900009	1.61973900
1.87000009	1.61973900
1.87100009	1.63756200
1.87200009	1.61973900
1.87300009	1.61973900
1.87400009	1.63756200
1.87500009	1.61973900
1.87600009	1.61973900
1.87700009	1.63756200
1.87800009	1.61973900
1.87900009	1.63756200
1.88000009	1.63756200
1.88100009	1.61973900
1.88200009	1.61973900
1.88300009	1.63756200
1.88400009	1.61973900
1.88500009	1.61973900
1.88600009	1.63756200
1.88700009	1.61973900
1.88800009	1.61973900
1.88900009	1.61973900
1.89000009	1.60197800
1.89100009	1.63756200
1.89200009	1.61973900
1.89300009	1.61973900
1.89400009	1.63756200
1.89500009	1.61973900
1.89600009	1.63756200
1.89700009	1.63756200
1.89800009	1.61973900
1.89900009	1.61973900
1.90000009	1.63756200
1.90100009	1.61973900
1.90200009	1.61973900
1.90300009	1.63756200
1.90400009	1.61973900
1.90500009	1.61973900
1.90600009	1.63756200
1.90700009	1.61973900
1.90800009	1.61973900
1.90900009	1.63756200
1.91000009	1.63756200
1.91100009	1.61973900
1.91200009	1.63756200
1.91300009	1.61973900
1.91400009	1.61973900
1.91500009	1.63756200
1.91600009	1.61973900
1.91700009	1.61973900
1.91800009	1.61973900
1.91900009	1.61973900
1.92000009	1.61973900
1.92100009	1.60197800
1.92200009	1.58415500
1.92300009	1.60197800
1.92400009	1.60197800
1.92500009	1.58415500
1.92600009	1.60197800
1.92700009	1.60197800
1.92800009	1.58415500
1.92900009	1.60197800
1.93000009	1.61973900
1.93100009	1.60197800
1.93200009	1.60197800
1.93300009	1.61973900
1.93400009	1.60197800
1.93500009	1.60197800
1.93600009	1.61973900
1.93700009	1.58415500
1.93800009	1.61973900
1.93900009	1.60197800
1.94000009	1.60197800
1.94100009	1.60197800
1.94200009	1.61973900
1.94300009	1.58415500
1.94400009	1.60197800
1.94500009	1.61973900
1.94600009	1.60197800
1.94700009	1.61973900
1.94800009	1.61973900
1.94900009	1.60197800
1.95000009	1.63756200
1.95100009	1.61973900
1.95200009	1.63756200
1.95300009	1.63756200
1.95400009	1.61973900
1.95500009	1.61973900
1.95600009	1.63756200
1.95700009	1.61973900
1.95800009	1.61973900
1.95900009	1.63756200
1.96000009	1.61973900
1.96100009	1.61973900
1.96200009	1.63756200
1.96300009	1.61973900
1.96400009	1.63756200
1.96500009	1.63756200
1.96600009	1.61973900
1.96700009	1.63756200
1.96800009	1.63756200
1.96900009	1.61973900
1.97000009	1.61973900
1.97100009	1.63756200
1.97200009	1.61973900
1.97300009	1.61973900
1.97400009	1.61973900
1.97500009	1.61973900
1.97600009	1.61973900
1.97700009	1.61973900
1.97800009	1.63756200
1.97900009	1.63756200
1.98000009	1.61973900
1.98100009	1.61973900
1.98200009	1.63756200
1.98300009	1.61973900
1.98400009	1.61973900
1.98500009	1.63756200
1.98600009	1.61973900
1.98700009	1.61973900
1.98800009	1.63756200
1.98900009	1.61973900
1.99000009	1.61973900
1.99100009	1.63756200
1.99200009	1.60197800
1.99300009	1.63756200
1.99400009	1.63756200
1.99500009	1.60197800
1.99600009	1.61973900
1.99700009	1.63756200
1.99800009	1.61973900
1.99900009	1.63756200
2.00000009	1.63756200
2.00100010	1.61973900
2.00200010	1.61973900
2.00300010	1.61973900
2.00400010	1.61973900
2.00500010	1.61973900
2.00600010	1.60197800
2.00700010	1.60197800
2.00800010	1.63756200
2.00900010	1.60197800
2.01000010	1.60197800
2.01100010	1.61973900
2.01200010	1.60197800
2.01300010	1.60197800
2.01400010	1.61973900
2.01500010	1.60197800
2.01600010	1.60197800
2.01700010	1.61973900
2.01800010	1.61973900
2.01900010	1.60197800
2.02000010	1.61973900
2.02100010	1.60197800
2.02200010	1.60197800
2.02300010	1.61973900
2.02400010	1.61973900
2.02500010	1.60197800
2.02600010	1.61973900
2.02700010	1.60197800
2.02800010	1.60197800
2.02900010	1.61973900
2.03000010	1.61973900
2.03100010	1.61973900
2.03200010	1.61973900
2.03300010	1.61973900
2.03400010	1.61973900
2.03500010	1.61973900
2.03600010	1.61973900
2.03700010	1.61973900
2.03800010	1.61973900
2.03900010	1.60197800
2.04000010	1.61973900
2.04100010	1.61973900
2.04200010	1.61973900
2.04300010	1.61973900
2.04400010	1.61973900
2.04500010	1.60197800
2.04600010	1.63756200
2.04700010	1.61973900
2.04800010	1.61973900
2.04900010	1.61973900
2.05000010	1.61973900
2.05100010	1.60197800
2.05200010	1.61973900
2.05300010	1.61973900
2.05400010	1.60197800
2.05500010	1.61973900
2.05600010	1.60197800
2.05700010	1.60197800
2.05800010	1.60197800
2.05900010	1.61973900
2.06000010	1.56639300
2.06100010	1.61973900
2.06200010	1.60197800
2.06300010	1.63756200
2.06400010	1.63756200
2.06500010	1.61973900
2.06600010	1.63756200
2.06700010	1.63756200
2.06800010	1.61973900
2.06900010	1.61973900
2.07000010	1.63756200
2.07100010	1.60197800
2.07200010	1.63756200
2.07300010	1.63756200
2.07400010	1.61973900
2.07500010	1.61973900
2.07600010	1.61973900
2.07700010	1.61973900
2.07800010	1.61973900
2.07900010	1.61973900
2.08000010	1.61973900
2.08100010	1.61973900
2.08200010	1.61973900
2.08300010	1.61973900
2.08400010	1.61973900
2.08500010	1.63756200
2.08600010	1.61973900
2.08700010	1.61973900
2.08800010	1.61973900
2.08900010	1.61973900
2.09000010	1.63756200
2.09100010	1.61973900
2.09200010	1.60197800
2.09300010	1.63756200
2.09400010	1.61973900
2.09500010	1.60197800
2.09600010	1.63756200
2.09700010	1.60197800
2.09800010	1.60197800
2.09900010	1.61973900
2.10000010	1.61973900
2.10100010	1.60197800
2.10200010	1.60197800
2.10300010	1.60197800
2.10400010	1.60197800
2.10500010	1.61973900
2.10600010	1.61973900
2.10700010	1.63756200
2.10800010	1.61973900
2.10900010	1.61973900
2.11000010	1.61973900
2.11100010	1.63756200
2.11200010	1.61973900
2.11300010	1.63756200
2.11400010	1.61973900
2.11500010	1.61973900
2.11600010	1.61973900
2.11700010	1.61973900
2.11800010	1.61973900
2.11900010	1.61973900
2.12000010	1.61973900
2.12100010	1.60197800
2.12200010	1.63756200
2.12300010	1.60197800
2.12400010	1.60197800
2.12500010	1.61973900
2.12600010	1.61973900
2.12700010	1.61973900
2.12800010	1.61973900
2.12900010	1.61973900
2.13000010	1.60197800
2.13100010	1.61973900
2.13200010	1.61973900
2.13300010	1.58415500
2.13400010	1.60197800
2.13500010	1.61973900
2.13600010	1.58415500
2.13700010	1.63756200
2.13800010	1.61973900
2.13900010	1.63756200
2.14000010	1.63756200
2.14100010	1.61973900
2.14200010	1.63756200
2.14300010	1.61973900
2.14400010	1.61973900
2.14500010	1.61973900
2.14600010	1.61973900
2.14700010	1.58415500
2.14800010	1.60197800
2.14900010	1.60197800
2.15000010	1.58415500
2.15100010	1.60197800
2.15200010	1.61973900
2.15300010	1.60197800
2.15400010	1.61973900
2.15500010	1.61973900
2.15600010	1.63756200
2.15700010	1.63756200
2.15800010	1.61973900
2.15900010	1.65538500
2.16000010	1.63756200
2.16100010	1.61973900
2.16200010	1.63756200
2.16300010	1.63756200
2.16400010	1.61973900
2.16500010	1.61973900
2.16600010	1.63756200
2.16700010	1.61973900
2.16800010	1.61973900
2.16900010	1.61973900
2.17000010	1.61973900
2.17100010	1.61973900
2.17200010	1.61973900
2.17300010	1.61973900
2.17400010	1.61973900
2.17500010	1.61973900
2.17600010	1.61973900
2.17700010	1.61973900
2.17800010	1.61973900
2.17900010	1.61973900
2.18000010	1.61973900
2.18100010	1.61973900
2.18200010	1.61973900
2.18300010	1.61973900
2.18400010	1.61973900
2.18500010	1.60197800
2.18600010	1.61973900
2.18700010	1.61973900
2.18800010	1.60197800
2.18900010	1.61973900
2.19000010	1.61973900
2.19100010	1.60197800
2.19200010	1.61973900
2.19300010	1.61973900
2.19400010	1.60197800
2.19500010	1.60197800
2.19600010	1.60197800
2.19700010	1.60197800
2.19800010	1.61973900
2.19900010	1.61973900
2.20000010	1.61973900
2.20100010	1.61973900
2.20200010	1.61973900
2.20300010	1.61973900
2.20400010	1.63756200
2.20500010	1.61973900
2.20600010	1.61973900
2.20700010	1.63756200
2.20800010	1.61973900
2.20900010	1.61973900
2.21000010	1.63756200
2.21100011	1.61973900
2.21200011	1.63756200
2.21300011	1.61973900
2.21400011	1.61973900
2.21500011	1.61973900
2.21600011	1.61973900
2.21700011	1.61973900
2.21800011	1.63756200
2.21900011	1.61973900
2.22000011	1.61973900
2.22100011	1.63756200
2.22200011	1.61973900
2.22300011	1.61973900
2.22400011	1.61973900
2.22500011	1.61973900
2.22600011	1.61973900
2.22700011	1.61973900
2.22800011	1.61973900
2.22900011	1.61973900
2.23000011	1.61973900
2.23100011	1.61973900
2.23200011	1.63756200
2.23300011	1.63756200
2.23400011	1.61973900
2.23500011	1.63756200
2.23600011	1.63756200
2.23700011	1.61973900
2.23800011	1.63756200
2.23900011	1.63756200
2.24000011	1.61973900
2.24100011	1.63756200
2.24200011	1.63756200
2.24300011	1.61973900
2.24400011	1.63756200
2.24500011	1.63756200
2.24600011	1.61973900
2.24700011	1.63756200
2.24800011	1.63756200
2.24900011	1.61973900
2.25000011	1.63756200
2.25100011	1.63756200
2.25200011	1.61973900
2.25300011	1.63756200
2.25400011	1.63756200
2.25500011	1.61973900
2.25600011	1.63756200
2.25700011	1.61973900
2.25800011	1.61973900
2.25900011	1.61973900
2.26000011	1.61973900
2.26100011	1.60197800
2.26200011	1.61973900
2.26300011	1.61973900
2.26400011	1.60197800
2.26500011	1.63756200
2.26600011	1.60197800
2.26700011	1.60197800
2.26800011	1.63756200
2.26900011	1.61973900
2.27000011	1.61973900
2.27100011	1.63756200
2.27200011	1.61973900
2.27300011	1.63756200
2.27400011	1.63756200
2.27500011	1.60197800
2.27600011	1.63756200
2.27700011	1.63756200
2.27800011	1.61973900
2.27900011	1.63756200
2.28000011	1.63756200
2.28100011	1.61973900
2.28200011	1.63756200
2.28300011	1.61973900
2.28400011	1.61973900
2.28500011	1.61973900
2.28600011	1.61973900
2.28700011	1.56639300
2.28800011	1.61973900
2.28900011	1.61973900
2.29000011	1.61973900
2.29100011	1.61973900
2.29200011	1.61973900
2.29300011	1.61973900
2.29400011	1.63756200
2.29500011	1.61973900
2.29600011	1.60197800
2.29700011	1.63756200
2.29800011	1.61973900
2.29900011	1.60197800
2.30000011	1.61973900
2.30100011	1.61973900
2.30200011	1.60197800
2.30300011	1.61973900
2.30400011	1.61973900
2.30500011	1.61973900
2.30600011	1.63756200
2.30700011	1.61973900
2.30800011	1.61973900
2.30900011	1.61973900
2.31000011	1.65538500
2.31100011	1.61973900
2.31200011	1.60197800
2.31300011	1.61973900
2.31400011	1.61973900
2.31500011	1.61973900
2.31600011	1.61973900
2.31700011	1.63756200
2.31800011	1.63756200
2.31900011	1.61973900
2.32000011	1.63756200
2.32100011	1.63756200
2.32200011	1.61973900
2.32300011	1.60197800
2.32400011	1.63756200
2.32500011	1.61973900
2.32600011	1.63756200
2.32700011	1.63756200
2.32800011	1.61973900
2.32900011	1.61973900
2.33000011	1.63756200
2.33100011	1.61973900
2.33200011	1.61973900
2.33300011	1.63756200
2.33400011	1.61973900
2.33500011	1.60197800
2.33600011	1.63756200
2.33700011	1.61973900
2.33800011	1.60197800
2.33900011	1.61973900
2.34000011	1.61973900
2.34100011	1.61973900
2.34200011	1.61973900
2.34300011	1.56639300
2.34400011	1.63756200
2.34500011	1.61973900
2.34600011	1.60197800
2.34700011	1.63756200
2.34800011	1.61973900
2.34900011	1.61973900
2.35000011	1.61973900
2.35100011	1.60197800
2.35200011	1.58415500
2.35300011	1.60197800
2.35400011	1.60197800
2.35500011	1.58415500
2.35600011	1.63756200
2.35700011	1.61973900
2.35800011	1.60197800
2.35900011	1.63756200
2.36000011	1.61973900
2.36100011	1.58415500
2.36200011	1.63756200
2.36300011	1.61973900
2.36400011	1.63756200
2.36500011	1.63756200
2.36600011	1.61973900
2.36700011	1.61973900
2.36800011	1.61973900
2.36900011	1.61973900
2.37000011	1.61973900
2.37100011	1.63756200
2.37200011	1.60197800
2.37300011	1.61973900
2.37400011	1.63756200
2.37500011	1.60197800
2.37600011	1.61973900
2.37700011	1.61973900
2.37800011	1.61973900
2.37900011	1.61973900
2.38000011	1.61973900
2.38100011	1.60197800
2.38200011	1.61973900
2.38300011	1.61973900
2.38400011	1.60197800
2.38500011	1.60197800
2.38600011	1.61973900
2.38700011	1.58415500
2.38800011	1.63756200
2.38900011	1.61973900
2.39000011	1.60197800
2.39100011	1.63756200
2.39200011	1.63756200
2.39300011	1.63756200
2.39400011	1.63756200
2.39500011	1.61973900
2.39600011	1.61973900
2.39700011	1.61973900
2.39800011	1.61973900
2.39900011	1.61973900
2.40000011	1.61973900
2.40100011	1.60197800
2.40200011	1.61973900
2.40300011	1.61973900
2.40400011	1.61973900
2.40500011	1.63756200
2.40600011	1.61973900
2.40700011	1.61973900
2.40800011	1.61973900
2.40900011	1.61973900
2.41000011	1.60197800
2.41100011	1.61973900
2.41200011	1.61973900
2.41300011	1.60197800
2.41400011	1.60197800
2.41500011	1.61973900
2.41600011	1.60197800
2.41700011	1.61973900
2.41800011	1.61973900
2.41900011	1.60197800
2.42000011	1.63756200
2.42100011	1.61973900
2.42200012	1.60197800
2.42300012	1.61973900
2.42400012	1.61973900
2.42500012	1.61973900
2.42600012	1.61973900
2.42700012	1.61973900
2.42800012	1.61973900
2.42900012	1.63756200
2.43000012	1.60197800
2.43100012	1.61973900
2.43200012	1.61973900
2.43300012	1.60197800
2.43400012	1.61973900
2.43500012	1.61973900
2.43600012	1.61973900
2.43700012	1.61973900
2.43800012	1.61973900
2.43900012	1.60197800
2.44000012	1.60197800
2.44100012	1.60197800
2.44200012	1.58415500
2.44300012	1.60197800
2.44400012	1.61973900
2.44500012	1.60197800
2.44600012	1.60197800
2.44700012	1.61973900
2.44800012	1.60197800
2.44900012	1.63756200
2.45000012	1.61973900
2.45100012	1.61973900
2.45200012	1.61973900
2.45300012	1.63756200
2.45400012	1.61973900
2.45500012	1.61973900
2.45600012	1.61973900
2.45700012	1.61973900
2.45800012	1.63756200
2.45900012	1.60197800
2.46000012	1.61973900
2.46100012	1.61973900
2.46200012	1.61973900
2.46300012	1.61973900
2.46400012	1.63756200
2.46500012	1.60197800
2.46600012	1.61973900
2.46700012	1.63756200
2.46800012	1.61973900
2.46900012	1.61973900
2.47000012	1.61973900
2.47100012	1.61973900
2.47200012	1.61973900
2.47300012	1.63756200
2.47400012	1.60197800
2.47500012	1.61973900
2.47600012	1.60197800
2.47700012	1.60197800
2.47800012	1.60197800
2.47900012	1.61973900
2.48000012	1.61973900
2.48100012	1.61973900
2.48200012	1.60197800
2.48300012	1.61973900
2.48400012	1.63756200
2.48500012	1.61973900
2.48600012	1.61973900
2.48700012	1.63756200
2.48800012	1.61973900
2.48900012	1.61973900
2.49000012	1.63756200
2.49100012	1.60197800
2.49200012	1.63756200
2.49300012	1.61973900
2.49400012	1.61973900
2.49500012	1.61973900
2.49600012	1.61973900
2.49700012	1.60197800
2.49800012	1.61973900
2.49900012	1.60197800
2.50000012	1.60197800
2.50100012	1.60197800
2.50200012	1.61973900
2.50300012	1.60197800
2.50400012	1.61973900
2.50500012	1.60197800
2.50600012	1.58415500
2.50700012	1.63756200
2.50800012	1.61973900
2.50900012	1.61973900
2.51000012	1.61973900
2.51100012	1.61973900
2.51200012	1.61973900
2.51300012	1.63756200
2.51400012	1.61973900
2.51500012	1.63756200
2.51600012	1.63756200
2.51700012	1.61973900
2.51800012	1.61973900
2.51900012	1.63756200
2.52000012	1.67314700
2.52100012	1.61973900
2.52200012	1.69097000
2.52300012	1.61973900
2.52400012	1.77996200
2.52500012	1.63756200
2.52600012	1.67314700
2.52700012	1.61973900
2.52800012	1.63756200
2.52900012	1.61973900
2.53000012	1.61973900
2.53100012	1.61973900
2.53200012	1.60197800
2.53300012	1.61973900
2.53400012	1.61973900
2.53500012	1.67314700
2.53600012	1.61973900
2.53700012	1.67314700
2.53800012	1.60197800
2.53900012	1.61973900
2.54000012	1.67314700
2.54100012	1.58415500
2.54200012	1.60197800
2.54300012	1.72655400
2.54400012	1.58415500
2.54500012	1.60197800
2.54600012	1.60197800
2.54700012	1.60197800
2.54800012	1.67314700
2.54900012	1.60197800
2.55000012	1.60197800
2.55100012	1.63756200
2.55200012	1.61973900
2.55300012	1.69097000
2.55400012	1.63756200
2.55500012	1.61973900
2.55600012	1.63756200
2.55700012	1.61973900
2.55800012	1.61973900
2.55900012	1.63756200
2.56000012	1.61973900
2.56100012	1.60197800
2.56200012	1.61973900
2.56300012	1.63756200
2.56400012	1.60197800
2.56500012	1.60197800
2.56600012	1.61973900
2.56700012	1.61973900
2.56800012	1.61973900
2.56900012	1.61973900
2.57000012	1.58415500
2.57100012	1.60197800
2.57200012	1.60197800
2.57300012	1.58415500
2.57400012	1.60197800
2.57500012	1.60197800
2.57600012	1.60197800
2.57700012	1.60197800
2.57800012	1.60197800
2.57900012	1.58415500
2.58000012	1.61973900
2.58100012	1.61973900
2.58200012	1.58415500
2.58300012	1.60197800
2.58400012	1.60197800
2.58500012	1.58415500
2.58600012	1.60197800
2.58700012	1.61973900
2.58800012	1.58415500
2.58900012	1.61973900
2.59000012	1.60197800
2.59100012	1.60197800
2.59200012	1.61973900
2.59300012	1.61973900
2.59400012	1.61973900
2.59500012	1.61973900
2.59600012	1.61973900
2.59700012	1.61973900
2.59800012	1.61973900
2.59900012	1.60197800
2.60000012	1.61973900
2.60100012	1.60197800
2.60200012	1.60197800
2.60300012	1.60197800
2.60400012	1.60197800
2.60500012	1.58415500
2.60600012	1.60197800
2.60700012	1.61973900
2.60800012	1.58415500
2.60900012	1.61973900
2.61000012	1.61973900
2.61100012	1.60197800
2.61200012	1.60197800
2.61300012	1.61973900
2.61400012	1.58415500
2.61500012	1.60197800
2.61600012	1.61973900
2.61700012	1.60197800
2.61800012	1.61973900
2.61900012	1.60197800
2.62000012	1.58415500
2.62100012	1.60197800
2.62200012	1.61973900
2.62300012	1.61973900
2.62400012	1.63756200
2.62500012	1.61973900
2.62600012	1.61973900
2.62700012	1.61973900
2.62800012	1.60197800
2.62900012	1.60197800
2.63000012	1.61973900
2.63100012	1.60197800
2.63200013	1.60197800
2.63300013	1.60197800
2.63400013	1.58415500
2.63500013	1.60197800
2.63600013	1.60197800
2.63700013	1.56639300
2.63800013	1.60197800
2.63900013	1.60197800
2.64000013	1.58415500
2.64100013	1.61973900
2.64200013	1.60197800
2.64300013	1.58415500
2.64400013	1.58415500
2.64500013	1.61973900
2.64600013	1.58415500
2.64700013	1.61973900
2.64800013	1.61973900
2.64900013	1.61973900
2.65000013	1.61973900
2.65100013	1.61973900
2.65200013	1.61973900
2.65300013	1.60197800
2.65400013	1.61973900
2.65500013	1.61973900
2.65600013	1.61973900
2.65700013	1.61973900
2.65800013	1.61973900
2.65900013	1.63756200
2.66000013	1.60197800
2.66100013	1.61973900
2.66200013	1.61973900
2.66300013	1.61973900
2.66400013	1.61973900
2.66500013	1.61973900
2.66600013	1.60197800
2.66700013	1.61973900
2.66800013	1.61973900
2.66900013	1.60197800
2.67000013	1.61973900
2.67100013	1.61973900
2.67200013	1.60197800
2.67300013	1.60197800
2.67400013	1.60197800
2.67500013	1.60197800
2.67600013	1.60197800
2.67700013	1.61973900
2.67800013	1.61973900
2.67900013	1.61973900
2.68000013	1.63756200
2.68100013	1.61973900
2.68200013	1.63756200
2.68300013	1.61973900
2.68400013	1.60197800
2.68500013	1.63756200
2.68600013	1.61973900
2.68700013	1.61973900
2.68800013	1.63756200
2.68900013	1.61973900
2.69000013	1.63756200
2.69100013	1.63756200
2.69200013	1.61973900
2.69300013	1.63756200
2.69400013	1.61973900
2.69500013	1.61973900
2.69600013	1.61973900
2.69700013	1.61973900
2.69800013	1.61973900
2.69900013	1.61973900
2.70000013	1.61973900
2.70100013	1.60197800
2.70200013	1.61973900
2.70300013	1.63756200
2.70400013	1.61973900
2.70500013	1.61973900
2.70600013	1.61973900
2.70700013	1.61973900
2.70800013	1.61973900
2.70900013	1.61973900
2.71000013	1.60197800
2.71100013	1.61973900
2.71200013	1.61973900
2.71300013	1.61973900
2.71400013	1.63756200
2.71500013	1.61973900
2.71600013	1.63756200
2.71700013	1.63756200
2.71800013	1.60197800
2.71900013	1.61973900
2.72000013	1.63756200
2.72100013	1.61973900
2.72200013	1.61973900
2.72300013	1.61973900
2.72400013	1.61973900
2.72500013	1.61973900
2.72600013	1.63756200
2.72700013	1.60197800
2.72800013	1.61973900
2.72900013	1.63756200
2.73000013	1.61973900
2.73100013	1.61973900
2.73200013	1.63756200
2.73300013	1.60197800
2.73400013	1.61973900
2.73500013	1.61973900
2.73600013	1.61973900
2.73700013	1.61973900
2.73800013	1.61973900
2.73900013	1.63756200
2.74000013	1.61973900
2.74100013	1.61973900
2.74200013	1.63756200
2.74300013	1.61973900
2.74400013	1.60197800
2.74500013	1.61973900
2.74600013	1.63756200
2.74700013	1.61973900
2.74800013	1.63756200
2.74900013	1.61973900
2.75000013	1.63756200
2.75100013	1.61973900
2.75200013	1.61973900
2.75300013	1.60197800
2.75400013	1.61973900
2.75500013	1.63756200
2.75600013	1.60197800
2.75700013	1.61973900
2.75800013	1.63756200
2.75900013	1.61973900
2.76000013	1.63756200
2.76100013	1.61973900
2.76200013	1.61973900
2.76300013	1.61973900
2.76400013	1.61973900
2.76500013	1.61973900
2.76600013	1.61973900
2.76700013	1.61973900
2.76800013	1.58415500
2.76900013	1.61973900
2.77000013	1.61973900
2.77100013	1.60197800
2.77200013	1.63756200
2.77300013	1.61973900
2.77400013	1.63756200
2.77500013	1.63756200
2.77600013	1.61973900
2.77700013	1.63756200
2.77800013	1.63756200
2.77900013	1.61973900
2.78000013	1.63756200
2.78100013	1.63756200
2.78200013	1.61973900
2.78300013	1.63756200
2.78400013	1.61973900
2.78500013	1.61973900
2.78600013	1.61973900
2.78700013	1.63756200
2.78800013	1.61973900
2.78900013	1.63756200
2.79000013	1.63756200
2.79100013	1.61973900
2.79200013	1.61973900
2.79300013	1.61973900
2.79400013	1.61973900
2.79500013	1.61973900
2.79600013	1.61973900
2.79700013	1.61973900
2.79800013	1.61973900
2.79900013	1.61973900
2.80000013	1.60197800
2.80100013	1.61973900
2.80200013	1.60197800
2.80300013	1.60197800
2.80400013	1.61973900
2.80500013	1.61973900
2.80600013	1.58415500
2.80700013	1.61973900
2.80800013	1.60197800
2.80900013	1.60197800
2.81000013	1.61973900
2.81100013	1.60197800
2.81200013	1.60197800
2.81300013	1.61973900
2.81400013	1.61973900
2.81500013	1.58415500
2.81600013	1.61973900
2.81700013	1.60197800
2.81800013	1.60197800
2.81900013	1.61973900
2.82000013	1.63756200
2.82100013	1.60197800
2.82200013	1.61973900
2.82300013	1.60197800
2.82400013	1.61973900
2.82500013	1.63756200
2.82600013	1.61973900
2.82700013	1.61973900
2.82800013	1.61973900
2.82900013	1.60197800
2.83000013	1.63756200
2.83100013	1.63756200
2.83200013	1.61973900
2.83300013	1.61973900
2.83400013	1.61973900
2.83500013	1.60197800
2.83600013	1.60197800
2.83700013	1.61973900
2.83800013	1.61973900
2.83900013	1.60197800
2.84000013	1.61973900
2.84100013	1.60197800
2.84200013	1.60197800
2.84300014	1.60197800
2.84400014	1.60197800
2.84500014	1.60197800
2.84600014	1.61973900
2.84700014	1.61973900
2.84800014	1.61973900
2.84900014	1.61973900
2.85000014	1.61973900
2.85100014	1.61973900
2.85200014	1.61973900
2.85300014	1.60197800
2.85400014	1.63756200
2.85500014	1.61973900
2.85600014	1.63756200
2.85700014	1.63756200
2.85800014	1.61973900
2.85900014	1.63756200
2.86000014	1.63756200
2.86100014	1.63756200
2.86200014	1.63756200
2.86300014	1.63756200
2.86400014	1.61973900
2.86500014	1.63756200
2.86600014	1.63756200
2.86700014	1.61973900
2.86800014	1.63756200
2.86900014	1.63756200
2.87000014	1.61973900
2.87100014	1.61973900
2.87200014	1.63756200
2.87300014	1.61973900
2.87400014	1.61973900
2.87500014	1.61973900
2.87600014	1.61973900
2.87700014	1.61973900
2.87800014	1.61973900
2.87900014	1.61973900
2.88000014	1.61973900
2.88100014	1.61973900
2.88200014	1.61973900
2.88300014	1.61973900
2.88400014	1.61973900
2.88500014	1.61973900
2.88600014	1.61973900
2.88700014	1.60197800
2.88800014	1.61973900
2.88900014	1.61973900
2.89000014	1.60197800
2.89100014	1.61973900
2.89200014	1.61973900
2.89300014	1.60197800
2.89400014	1.61973900
2.89500014	1.60197800
2.89600014	1.60197800
2.89700014	1.61973900
2.89800014	1.60197800
2.89900014	1.58415500
2.90000014	1.63756200
2.90100014	1.61973900
2.90200014	1.61973900
2.90300014	1.61973900
2.90400014	1.61973900
2.90500014	1.63756200
2.90600014	1.61973900
2.90700014	1.61973900
2.90800014	1.61973900
2.90900014	1.61973900
2.91000014	1.61973900
2.91100014	1.61973900
2.91200014	1.61973900
2.91300014	1.61973900
2.91400014	1.61973900
2.91500014	1.61973900
2.91600014	1.60197800
2.91700014	1.61973900
2.91800014	1.61973900
2.91900014	1.61973900
2.92000014	1.61973900
2.92100014	1.61973900
2.92200014	1.61973900
2.92300014	1.61973900
2.92400014	1.61973900
2.92500014	1.61973900
2.92600014	1.61973900
2.92700014	1.61973900
2.92800014	1.61973900
2.92900014	1.61973900
2.93000014	1.61973900
2.93100014	1.60197800
2.93200014	1.61973900
2.93300014	1.61973900
2.93400014	1.61973900
2.93500014	1.61973900
2.93600014	1.61973900
2.93700014	1.61973900
2.93800014	1.63756200
2.93900014	1.60197800
2.94000014	1.61973900
2.94100014	1.61973900
2.94200014	1.60197800
2.94300014	1.61973900
2.94400014	1.61973900
2.94500014	1.60197800
2.94600014	1.61973900
2.94700014	1.61973900
2.94800014	1.61973900
2.94900014	1.61973900
2.95000014	1.61973900
2.95100014	1.61973900
2.95200014	1.61973900
2.95300014	1.61973900
2.95400014	1.60197800
2.95500014	1.61973900
2.95600014	1.61973900
2.95700014	1.60197800
2.95800014	1.63756200
2.95900014	1.61973900
2.96000014	1.61973900
2.96100014	1.61973900
2.96200014	1.61973900
2.96300014	1.56639300
2.96400014	1.61973900
2.96500014	1.61973900
2.96600014	1.60197800
2.96700014	1.60197800
2.96800014	1.60197800
2.96900014	1.60197800
2.97000014	1.60197800
2.97100014	1.61973900
2.97200014	1.60197800
2.97300014	1.60197800
2.97400014	1.61973900
2.97500014	1.58415500
2.97600014	1.61973900
2.97700014	1.61973900
2.97800014	1.61973900
2.97900014	1.63756200
2.98000014	1.61973900
2.98100014	1.58415500
2.98200014	1.61973900
2.98300014	1.61973900
2.98400014	1.63756200
2.98500014	1.61973900
2.98600014	1.61973900
2.98700014	1.60197800
2.98800014	1.61973900
2.98900014	1.61973900
2.99000014	1.61973900
2.99100014	1.60197800
2.99200014	1.61973900
2.99300014	1.63756200
2.99400014	1.61973900
2.99500014	1.61973900
2.99600014	1.61973900
2.99700014	1.61973900
2.99800014	1.60197800
2.99900014	1.63756200
3.00000014	1.61973900
3.00100014	1.61973900
3.00200014	1.61973900
3.00300014	1.61973900
3.00400014	1.61973900
3.00500014	1.61973900
3.00600014	1.61973900
3.00700014	1.60197800
3.00800014	1.61973900
3.00900014	1.63756200
3.01000014	1.60197800
3.01100014	1.61973900
3.01200014	1.61973900
3.01300014	1.60197800
3.01400014	1.60197800
3.01500014	1.61973900
3.01600014	1.61973900
3.01700014	1.61973900
3.01800014	1.61973900
3.01900014	1.61973900
3.02000014	1.61973900
3.02100014	1.61973900
3.02200014	1.58415500
3.02300014	1.63756200
3.02400014	1.61973900
3.02500014	1.63756200
3.02600014	1.63756200
3.02700014	1.61973900
3.02800014	1.63756200
3.02900014	1.63756200
3.03000014	1.61973900
3.03100014	1.63756200
3.03200014	1.61973900
3.03300014	1.61973900
3.03400014	1.63756200
3.03500014	1.61973900
3.03600014	1.61973900
3.03700014	1.61973900
3.03800014	1.63756200
3.03900014	1.60197800
3.04000014	1.63756200
3.04100014	1.61973900
3.04200014	1.61973900
3.04300014	1.63756200
3.04400014	1.61973900
3.04500014	1.61973900
3.04600014	1.61973900
3.04700014	1.61973900
3.04800014	1.61973900
3.04900014	1.60197800
3.05000014	1.61973900
3.05100014	1.60197800
3.05200014	1.61973900
3.05300015	1.61973900
3.05400015	1.60197800
3.05500015	1.60197800
3.05600015	1.61973900
3.05700015	1.60197800
3.05800015	1.60197800
3.05900015	1.60197800
3.06000015	1.60197800
3.06100015	1.61973900
3.06200015	1.61973900
3.06300015	1.58415500
3.06400015	1.61973900
3.06500015	1.61973900
3.06600015	1.58415500
3.06700015	1.61973900
3.06800015	1.61973900
3.06900015	1.58415500
3.07000015	1.60197800
3.07100015	1.61973900
3.07200015	1.58415500
3.07300015	1.61973900
3.07400015	1.61973900
3.07500015	1.61973900
3.07600015	1.61973900
3.07700015	1.61973900
3.07800015	1.61973900
3.07900015	1.63756200
3.08000015	1.60197800
3.08100015	1.63756200
3.08200015	1.61973900
3.08300015	1.61973900
3.08400015	1.61973900
3.08500015	1.61973900
3.08600015	1.61973900
3.08700015	1.61973900
3.08800015	1.61973900
3.08900015	1.61973900
3.09000015	1.63756200
3.09100015	1.61973900
3.09200015	1.61973900
3.09300015	1.61973900
3.09400015	1.61973900
3.09500015	1.61973900
3.09600015	1.61973900
3.09700015	1.61973900
3.09800015	1.60197800
3.09900015	1.61973900
3.10000015	1.61973900
3.10100015	1.61973900
3.10200015	1.61973900
3.10300015	1.61973900
3.10400015	1.60197800
3.10500015	1.60197800
3.10600015	1.60197800
3.10700015	1.61973900
3.10800015	1.63756200
3.10900015	1.61973900
3.11000015	1.63756200
3.11100015	1.63756200
3.11200015	1.61973900
3.11300015	1.61973900
3.11400015	1.63756200
3.11500015	1.61973900
3.11600015	1.61973900
3.11700015	1.63756200
3.11800015	1.60197800
3.11900015	1.61973900
3.12000015	1.63756200
3.12100015	1.61973900
3.12200015	1.61973900
3.12300015	1.61973900
3.12400015	1.60197800
3.12500015	1.61973900
3.12600015	1.61973900
3.12700015	1.60197800
3.12800015	1.61973900
3.12900015	1.60197800
3.13000015	1.61973900
3.13100015	1.61973900
3.13200015	1.61973900
3.13300015	1.61973900
3.13400015	1.61973900
3.13500015	1.61973900
3.13600015	1.58415500
3.13700015	1.61973900
3.13800015	1.60197800
3.13900015	1.58415500
3.14000015	1.63756200
3.14100015	1.61973900
3.14200015	1.60197800
3.14300015	1.63756200
3.14400015	1.61973900
3.14500015	1.61973900
3.14600015	1.63756200
3.14700015	1.61973900
3.14800015	1.63756200
3.14900015	1.63756200
3.15000015	1.61973900
3.15100015	1.61973900
3.15200015	1.63756200
3.15300015	1.61973900
3.15400015	1.61973900
3.15500015	1.63756200
3.15600015	1.61973900
3.15700015	1.60197800
3.15800015	1.61973900
3.15900015	1.63756200
3.16000015	1.61973900
3.16100015	1.61973900
3.16200015	1.63756200
3.16300015	1.63756200
3.16400015	1.61973900
3.16500015	1.61973900
3.16600015	1.63756200
3.16700015	1.61973900
3.16800015	1.61973900
3.16900015	1.61973900
3.17000015	1.60197800
3.17100015	1.61973900
3.17200015	1.61973900
3.17300015	1.60197800
3.17400015	1.61973900
3.17500015	1.63756200
3.17600015	1.60197800
3.17700015	1.60197800
3.17800015	1.60197800
3.17900015	1.58415500
3.18000015	1.60197800
3.18100015	1.60197800
3.18200015	1.58415500
3.18300015	1.61973900
3.18400015	1.61973900
3.18500015	1.61973900
3.18600015	1.61973900
3.18700015	1.61973900
3.18800015	1.61973900
3.18900015	1.61973900
3.19000015	1.61973900
3.19100015	1.61973900
3.19200015	1.61973900
3.19300015	1.60197800
3.19400015	1.60197800
3.19500015	1.61973900
3.19600015	1.60197800
3.19700015	1.61973900
3.19800015	1.61973900
3.19900015	1.58415500
3.20000015	1.60197800
3.20100015	1.61973900
3.20200015	1.60197800
3.20300015	1.61973900
3.20400015	1.61973900
3.20500015	1.58415500
3.20600015	1.60197800
3.20700015	1.60197800
3.20800015	1.60197800
3.20900015	1.60197800
3.21000015	1.61973900
3.21100015	1.58415500
3.21200015	1.61973900
3.21300015	1.61973900
3.21400015	1.63756200
3.21500015	1.61973900
3.21600015	1.61973900
3.21700015	1.60197800
3.21800015	1.63756200
3.21900015	1.61973900
3.22000015	1.61973900
3.22100015	1.63756200
3.22200015	1.60197800
3.22300015	1.61973900
3.22400015	1.63756200
3.22500015	1.61973900
3.22600015	1.63756200
3.22700015	1.63756200
3.22800015	1.61973900
3.22900015	1.63756200
3.23000015	1.63756200
3.23100015	1.61973900
3.23200015	1.63756200
3.23300015	1.61973900
3.23400015	1.60197800
3.23500015	1.61973900
3.23600015	1.61973900
3.23700015	1.61973900
3.23800015	1.63756200
3.23900015	1.61973900
3.24000015	1.60197800
3.24100015	1.60197800
3.24200015	1.61973900
3.24300015	1.61973900
3.24400015	1.61973900
3.24500015	1.63756200
3.24600015	1.56639300
3.24700015	1.63756200
3.24800015	1.61973900
3.24900015	1.63756200
3.25000015	1.63756200
3.25100015	1.61973900
3.25200015	1.63756200
3.25300015	1.63756200
3.25400015	1.61973900
3.25500015	1.61973900
3.25600015	1.63756200
3.25700015	1.61973900
3.25800015	1.61973900
3.25900015	1.63756200
3.26000015	1.60197800
3.26100015	1.61973900
3.26200015	1.63756200
3.26300015	1.61973900
3.26400016	1.63756200
3.26500016	1.63756200
3.26600016	1.60197800
3.26700016	1.63756200
3.26800016	1.63756200
3.26900016	1.61973900
3.27000016	1.63756200
3.27100016	1.61973900
3.27200016	1.61973900
3.27300016	1.60197800
3.27400016	1.61973900
3.27500016	1.58415500
3.27600016	1.60197800
3.27700016	1.61973900
3.27800016	1.56639300
3.27900016	1.61973900
3.28000016	1.60197800
3.28100016	1.58415500
3.28200016	1.60197800
3.28300016	1.60197800
3.28400016	1.58415500
3.28500016	1.61973900
3.28600016	1.61973900
3.28700016	1.63756200
3.28800016	1.63756200
3.28900016	1.63756200
3.29000016	1.61973900
3.29100016	1.61973900
3.29200016	1.60197800
3.29300016	1.61973900
3.29400016	1.63756200
3.29500016	1.63756200
3.29600016	1.61973900
3.29700016	1.61973900
3.29800016	1.61973900
3.29900016	1.61973900
3.30000016	1.61973900
3.30100016	1.61973900
3.30200016	1.61973900
3.30300016	1.61973900
3.30400016	1.61973900
3.30500016	1.63756200
3.30600016	1.61973900
3.30700016	1.61973900
3.30800016	1.63756200
3.30900016	1.63756200
3.31000016	1.61973900
3.31100016	1.61973900
3.31200016	1.60197800
3.31300016	1.61973900
3.31400016	1.63756200
3.31500016	1.61973900
3.31600016	1.63756200
3.31700016	1.63756200
3.31800016	1.61973900
3.31900016	1.61973900
3.32000016	1.63756200
3.32100016	1.60197800
3.32200016	1.61973900
3.32300016	1.63756200
3.32400016	1.61973900
3.32500016	1.61973900
3.32600016	1.61973900
3.32700016	1.61973900
3.32800016	1.61973900
3.32900016	1.61973900
3.33000016	1.61973900
3.33100016	1.60197800
3.33200016	1.61973900
3.33300016	1.58415500
3.33400016	1.61973900
3.33500016	1.60197800
3.33600016	1.58415500
3.33700016	1.61973900
3.33800016	1.61973900
3.33900016	1.60197800
3.34000016	1.61973900
3.34100016	1.61973900
3.34200016	1.63756200
3.34300016	1.63756200
3.34400016	1.61973900
3.34500016	1.61973900
3.34600016	1.63756200
3.34700016	1.61973900
3.34800016	1.61973900
3.34900016	1.63756200
3.35000016	1.61973900
3.35100016	1.61973900
3.35200016	1.61973900
3.35300016	1.61973900
3.35400016	1.61973900
3.35500016	1.61973900
3.35600016	1.61973900
3.35700016	1.61973900
3.35800016	1.61973900
3.35900016	1.61973900
3.36000016	1.63756200
3.36100016	1.63756200
3.36200016	1.61973900
3.36300016	1.61973900
3.36400016	1.63756200
3.36500016	1.61973900
3.36600016	1.61973900
3.36700016	1.61973900
3.36800016	1.61973900
3.36900016	1.60197800
3.37000016	1.60197800
3.37100016	1.60197800
3.37200016	1.60197800
3.37300016	1.60197800
3.37400016	1.60197800
3.37500016	1.61973900
3.37600016	1.61973900
3.37700016	1.61973900
3.37800016	1.63756200
3.37900016	1.60197800
3.38000016	1.63756200
3.38100016	1.63756200
3.38200016	1.61973900
3.38300016	1.61973900
3.38400016	1.61973900
3.38500016	1.61973900
3.38600016	1.61973900
3.38700016	1.61973900
3.38800016	1.61973900
3.38900016	1.61973900
3.39000016	1.63756200
3.39100016	1.61973900
3.39200016	1.63756200
3.39300016	1.61973900
3.39400016	1.61973900
3.39500016	1.61973900
3.39600016	1.63756200
3.39700016	1.61973900
3.39800016	1.63756200
3.39900016	1.61973900
3.40000016	1.61973900
3.40100016	1.61973900
3.40200016	1.63756200
3.40300016	1.61973900
3.40400016	1.63756200
3.40500016	1.63756200
3.40600016	1.61973900
3.40700016	1.61973900
3.40800016	1.61973900
3.40900016	1.61973900
3.41000016	1.61973900
3.41100016	1.61973900
3.41200016	1.61973900
3.41300016	1.61973900
3.41400016	1.61973900
3.41500016	1.60197800
3.41600016	1.60197800
3.41700016	1.61973900
3.41800016	1.60197800
3.41900016	1.60197800
3.42000016	1.61973900
3.42100016	1.61973900
3.42200016	1.61973900
3.42300016	1.61973900
3.42400016	1.63756200
3.42500016	1.63756200
3.42600016	1.61973900
3.42700016	1.61973900
3.42800016	1.63756200
3.42900016	1.61973900
3.43000016	1.61973900
3.43100016	1.63756200
3.43200016	1.61973900
3.43300016	1.63756200
3.43400016	1.63756200
3.43500016	1.61973900
3.43600016	1.61973900
3.43700016	1.63756200
3.43800016	1.61973900
3.43900016	1.61973900
3.44000016	1.61973900
3.44100016	1.61973900
3.44200016	1.56639300
3.44300016	1.61973900
3.44400016	1.61973900
3.44500016	1.63756200
3.44600016	1.61973900
3.44700016	1.61973900
3.44800016	1.61973900
3.44900016	1.61973900
3.45000016	1.61973900
3.45100016	1.63756200
3.45200016	1.61973900
3.45300016	1.61973900
3.45400016	1.61973900
3.45500016	1.61973900
3.45600016	1.61973900
3.45700016	1.63756200
3.45800016	1.60197800
3.45900016	1.63756200
3.46000016	1.61973900
3.46100016	1.61973900
3.46200016	1.61973900
3.46300016	1.61973900
3.46400016	1.60197800
3.46500016	1.63756200
3.46600016	1.61973900
3.46700016	1.61973900
3.46800016	1.61973900
3.46900016	1.61973900
3.47000016	1.61973900
3.47100016	1.61973900
3.47200016	1.61973900
3.47300016	1.63756200
3.47400017	1.63756200
3.47500017	1.61973900
3.47600017	1.63756200
3.47700017	1.63756200
3.47800017	1.60197800
3.47900017	1.61973900
3.48000017	1.61973900
3.48100017	1.63756200
3.48200017	1.61973900
3.48300017	1.63756200
3.48400017	1.61973900
3.48500017	1.63756200
3.48600017	1.61973900
3.48700017	1.60197800
3.48800017	1.61973900
3.48900017	1.61973900
3.49000017	1.61973900
3.49100017	1.63756200
3.49200017	1.61973900
3.49300017	1.60197800
3.49400017	1.61973900
3.49500017	1.61973900
3.49600017	1.60197800
3.49700017	1.61973900
3.49800017	1.61973900
3.49900017	1.63756200
3.50000017	1.61973900
3.50100017	1.61973900
3.50200017	1.61973900
3.50300017	1.61973900
3.50400017	1.61973900
3.50500017	1.61973900
3.50600017	1.63756200
3.50700017	1.61973900
3.50800017	1.63756200
3.50900017	1.63756200
3.51000017	1.63756200
3.51100017	1.65538500
3.51200017	1.63756200
3.51300017	1.67314700
3.51400017	1.60197800
3.51500017	1.61973900
3.51600017	1.61973900
3.51700017	1.61973900
3.51800017	1.61973900
3.51900017	1.60197800
3.52000017	1.61973900
3.52100017	1.63756200
3.52200017	1.61973900
3.52300017	1.63756200
3.52400017	1.61973900
3.52500017	1.61973900
3.52600017	1.61973900
3.52700017	1.61973900
3.52800017	1.61973900
3.52900017	1.61973900
3.53000017	1.61973900
3.53100017	1.60197800
3.53200017	1.61973900
3.53300017	1.61973900
3.53400017	1.61973900
3.53500017	1.63756200
3.53600017	1.61973900
3.53700017	1.61973900
3.53800017	1.61973900
3.53900017	1.60197800
3.54000017	1.63756200
3.54100017	1.63756200
3.54200017	1.61973900
3.54300017	1.61973900
3.54400017	1.61973900
3.54500017	1.60197800
3.54600017	1.63756200
3.54700017	1.63756200
3.54800017	1.61973900
3.54900017	1.61973900
3.55000017	1.61973900
3.55100017	1.60197800
3.55200017	1.61973900
3.55300017	1.61973900
3.55400017	1.61973900
3.55500017	1.61973900
3.55600017	1.61973900
3.55700017	1.61973900
3.55800017	1.63756200
3.55900017	1.61973900
3.56000017	1.61973900
3.56100017	1.63756200
3.56200017	1.61973900
3.56300017	1.61973900
3.56400017	1.63756200
3.56500017	1.61973900
3.56600017	1.63756200
3.56700017	1.61973900
3.56800017	1.61973900
3.56900017	1.63756200
3.57000017	1.63756200
3.57100017	1.60197800
3.57200017	1.61973900
3.57300017	1.60197800
3.57400017	1.58415500
3.57500017	1.60197800
3.57600017	1.61973900
3.57700017	1.60197800
3.57800017	1.63756200
3.57900017	1.61973900
3.58000017	1.63756200
3.58100017	1.61973900
3.58200017	1.61973900
3.58300017	1.63756200
3.58400017	1.61973900
3.58500017	1.60197800
3.58600017	1.61973900
3.58700017	1.61973900
3.58800017	1.60197800
3.58900017	1.60197800
3.59000017	1.60197800
3.59100017	1.61973900
3.59200017	1.63756200
3.59300017	1.61973900
3.59400017	1.61973900
3.59500017	1.63756200
3.59600017	1.61973900
3.59700017	1.63756200
3.59800017	1.63756200
3.59900017	1.63756200
3.60000017	1.63756200
3.60100017	1.63756200
3.60200017	1.61973900
3.60300017	1.63756200
3.60400017	1.63756200
3.60500017	1.63756200
3.60600017	1.65538500
3.60700017	1.63756200
3.60800017	1.69097000
3.60900017	1.69097000
3.61000017	1.67314700
3.61100017	1.67314700
3.61200017	1.67314700
3.61300017	1.61973900
3.61400017	1.60197800
3.61500017	1.65538500
3.61600017	1.61973900
3.61700017	1.61973900
3.61800017	1.69097000
3.61900017	1.67314700
3.62000017	1.67314700
3.62100017	1.67314700
3.62200017	1.67314700
3.62300017	1.60197800
3.62400017	1.61973900
3.62500017	1.61973900
3.62600017	1.60197800
3.62700017	1.61973900
3.62800017	1.60197800
3.62900017	1.60197800
3.63000017	1.60197800
3.63100017	1.60197800
3.63200017	1.60197800
3.63300017	1.61973900
3.63400017	1.63756200
3.63500017	1.67314700
3.63600017	1.69097000
3.63700017	1.67314700
3.63800017	1.67314700
3.63900017	1.60197800
3.64000017	1.61973900
3.64100017	1.61973900
3.64200017	1.61973900
3.64300017	1.60197800
3.64400017	1.61973900
3.64500017	1.67314700
3.64600017	1.67314700
3.64700017	1.67314700
3.64800017	1.67314700
3.64900017	1.63756200
3.65000017	1.63756200
3.65100017	1.61973900
3.65200017	1.63756200
3.65300017	1.69097000
3.65400017	1.69097000
3.65500017	1.69097000
3.65600017	1.67314700
3.65700017	1.67314700
3.65800017	1.67314700
3.65900017	1.67314700
3.66000017	1.60197800
3.66100017	1.60197800
3.66200017	1.60197800
3.66300017	1.60197800
3.66400017	1.61973900
3.66500017	1.61973900
3.66600017	1.61973900
3.66700017	1.60197800
3.66800017	1.60197800
3.66900017	1.60197800
3.67000017	1.58415500
3.67100017	1.60197800
3.67200017	1.56639300
3.67300017	1.61973900
3.67400017	1.61973900
3.67500017	1.60197800
3.67600017	1.61973900
3.67700017	1.65538500
3.67800017	1.60197800
3.67900017	1.61973900
3.68000017	1.58415500
3.68100017	1.61973900
3.68200017	1.61973900
3.68300017	1.61973900
3.68400017	1.63756200
3.68500018	1.63756200
3.68600018	1.61973900
3.68700018	1.63756200
3.68800018	1.63756200
3.68900018	1.79778400
3.69000018	1.61973900
3.69100018	1.61973900
3.69200018	1.60197800
3.69300018	1.60197800
3.69400018	1.61973900
3.69500018	1.63756200
3.69600018	1.63756200
3.69700018	1.63756200
3.69800018	1.67314700
3.69900018	1.69097000
3.70000018	1.67314700
3.70100018	1.67314700
3.70200018	1.60197800
3.70300018	1.60197800
3.70400018	1.60197800
3.70500018	1.60197800
3.70600018	1.60197800
3.70700018	1.61973900
3.70800018	1.61973900
3.70900018	1.60197800
3.71000018	1.58415500
3.71100018	1.60197800
3.71200018	1.60197800
3.71300018	1.56639300
3.71400018	1.60197800
3.71500018	1.60197800
3.71600018	1.58415500
3.71700018	1.61973900
3.71800018	1.60197800
3.71900018	1.61973900
3.72000018	1.61973900
3.72100018	1.61973900
3.72200018	1.65538500
3.72300018	1.63756200
3.72400018	1.63756200
3.72500018	1.69097000
3.72600018	1.67314700
3.72700018	1.61973900
3.72800018	1.63756200
3.72900018	1.56639300
3.73000018	1.54857000
3.73100018	1.58415500
3.73200018	1.61973900
3.73300018	1.63756200
3.73400018	1.63756200
3.73500018	1.70879200
3.73600018	1.72655400
3.73700018	1.69097000
3.73800018	1.67314700
3.73900018	1.67314700
3.74000018	1.65538500
3.74100018	1.56639300
3.74200018	1.58415500
3.74300018	1.60197800
3.74400018	1.56639300
3.74500018	1.58415500
3.74600018	1.61973900
3.74700018	1.60197800
3.74800018	1.61973900
3.74900018	1.63756200
3.75000018	1.61973900
3.75100018	1.63756200
3.75200018	1.70879200
3.75300018	1.69097000
3.75400018	1.69097000
3.75500018	1.67314700
3.75600018	1.65538500
3.75700018	1.65538500
3.75800018	1.63756200
3.75900018	1.54857000
3.76000018	1.54857000
3.76100018	1.54857000
3.76200018	1.53074700
3.76300018	1.56639300
3.76400018	1.56639300
3.76500018	1.56639300
3.76600018	1.61973900
3.76700018	1.61973900
3.76800018	1.61973900
3.76900018	1.63756200
3.77000018	1.63756200
3.77100018	1.63756200
3.77200018	1.70879200
3.77300018	1.67314700
3.77400018	1.67314700
3.77500018	1.67314700
3.77600018	1.65538500
3.77700018	1.61973900
3.77800018	1.60197800
3.77900018	1.53074700
3.78000018	1.56639300
3.78100018	1.58415500
3.78200018	1.60197800
3.78300018	1.63756200
3.78400018	1.67314700
3.78500018	1.63756200
3.78600018	1.70879200
3.78700018	1.70879200
3.78800018	1.69097000
3.78900018	1.70879200
3.79000018	1.70879200
3.79100018	1.67314700
3.79200018	1.65538500
3.79300018	1.63756200
3.79400018	1.61973900
3.79500018	1.54857000
3.79600018	1.56639300
3.79700018	1.54857000
3.79800018	1.54857000
3.79900018	1.54857000
3.80000018	1.54857000
3.80100018	1.54857000
3.80200018	1.54857000
3.80300018	1.54857000
3.80400018	1.56639300
3.80500018	1.56639300
3.80600018	1.54857000
3.80700018	1.56639300
3.80800018	1.56639300
3.80900018	1.56639300
3.81000018	1.56639300
3.81100018	1.54857000
3.81200018	1.54857000
3.81300018	1.54857000
3.81400018	1.53074700
3.81500018	1.53074700
3.81600018	1.54857000
3.81700018	1.56639300
3.81800018	1.58415500
3.81900018	1.60197800
3.82000018	1.60197800
3.82100018	1.60197800
3.82200018	1.60197800
3.82300018	1.60197800
3.82400018	1.63756200
3.82500018	1.65538500
3.82600018	1.65538500
3.82700018	1.65538500
3.82800018	1.70879200
3.82900018	1.69097000
3.83000018	1.70879200
3.83100018	1.70879200
3.83200018	1.69097000
3.83300018	1.69097000
3.83400018	1.67314700
3.83500018	1.63756200
3.83600018	1.63756200
3.83700018	1.60197800
3.83800018	1.58415500
3.83900018	1.56639300
3.84000018	1.56639300
3.84100018	1.53074700
3.84200018	1.53074700
3.84300018	1.49516300
3.84400018	1.51298600
3.84500018	1.54857000
3.84600018	1.54857000
3.84700018	1.54857000
3.84800018	1.54857000
3.84900018	1.53074700
3.85000018	1.54857000
3.85100018	1.54857000
3.85200018	1.54857000
3.85300018	1.56639300
3.85400018	1.54857000
3.85500018	1.51298600
3.85600018	1.51298600
3.85700018	1.51298600
3.85800018	1.49516300
3.85900018	1.53074700
3.86000018	1.54857000
3.86100018	1.56639300
3.86200018	1.61973900
3.86300018	1.61973900
3.86400018	1.60197800
3.86500018	1.56639300
3.86600018	1.54857000
3.86700018	1.54857000
3.86800018	1.60197800
3.86900018	1.60197800
3.87000018	1.60197800
3.87100018	1.60197800
3.87200018	1.58415500
3.87300018	1.56639300
3.87400018	1.56639300
3.87500018	1.54857000
3.87600018	1.56639300
3.87700018	1.60197800
3.87800018	1.60197800
3.87900018	1.61973900
3.88000018	1.60197800
3.88100018	1.56639300
3.88200018	1.60197800
3.88300018	1.58415500
3.88400018	1.58415500
3.88500018	1.61973900
3.88600018	1.63756200
3.88700018	1.63756200
3.88800018	1.65538500
3.88900018	1.65538500
3.89000018	1.67314700
3.89100018	1.69097000
3.89200018	1.69097000
3.89300018	1.63756200
3.89400018	1.63756200
3.89500019	1.65538500
3.89600019	1.65538500
3.89700019	1.65538500
3.89800019	1.67314700
3.89900019	1.70879200
3.90000019	1.69097000
3.90100019	1.69097000
3.90200019	1.63756200
3.90300019	1.67314700
3.90400019	1.70879200
3.90500019	1.76213900
3.90600019	1.76213900
3.90700019	1.74437700
3.90800019	1.72655400
3.90900019	1.69097000
3.91000019	1.63756200
3.91100019	1.65538500
3.91200019	1.67314700
3.91300019	1.58415500
3.91400019	1.61973900
3.91500019	1.60197800
3.91600019	1.56639300
3.91700019	1.54857000
3.91800019	1.53074700
3.91900019	1.49516300
3.92000019	1.51298600
3.92100019	1.54857000
3.92200019	1.58415500
3.92300019	1.63756200
3.92400019	1.67314700
3.92500019	1.70879200
3.92600019	1.77996200
3.92700019	1.74437700
3.92800019	1.72655400
3.92900019	1.70879200
3.93000019	1.67314700
3.93100019	1.69097000
3.93200019	1.70879200
3.93300019	1.69097000
3.93400019	1.72655400
3.93500019	1.72655400
3.93600019	1.70879200
3.93700019	1.70879200
3.93800019	1.70879200
3.93900019	1.67314700
3.94000019	1.67314700
3.94100019	1.65538500
3.94200019	1.65538500
3.94300019	1.60197800
3.94400019	1.56639300
3.94500019	1.56639300
3.94600019	1.54857000
3.94700019	1.49516300
3.94800019	1.47734000
3.94900019	1.45957800
3.95000019	1.44175500
3.95100019	1.42399400
3.95200019	1.45957800
3.95300019	1.49516300
3.95400019	1.47734000
3.95500019	1.49516300
3.95600019	1.53074700
3.95700019	1.53074700
3.95800019	1.49516300
3.95900019	1.51298600
3.96000019	1.49516300
3.96100019	1.47734000
3.96200019	1.49516300
3.96300019	1.51298600
3.96400019	1.51298600
3.96500019	1.53074700
3.96600019	1.58415500
3.96700019	1.56639300
3.96800019	1.58415500
3.96900019	1.61973900
3.97000019	1.60197800
3.97100019	1.60197800
3.97200019	1.61973900
3.97300019	1.61973900
3.97400019	1.63756200
3.97500019	1.63756200
3.97600019	1.63756200
3.97700019	1.63756200
3.97800019	1.63756200
3.97900019	1.63756200
3.98000019	1.65538500
3.98100019	1.65538500
3.98200019	1.65538500
3.98300019	1.69097000
3.98400019	1.69097000
3.98500019	1.76213900
3.98600019	1.76213900
3.98700019	1.76213900
3.98800019	1.77996200
3.98900019	1.76213900
3.99000019	1.74437700
3.99100019	1.74437700
3.99200019	1.74437700
3.99300019	1.70879200
3.99400019	1.70879200
3.99500019	1.70879200
3.99600019	1.70879200
3.99700019	1.74437700
3.99800019	1.76213900
3.99900019	1.74437700
4.00000019	1.74437700
4.00100019	1.72655400
4.00200019	1.70879200
4.00300019	1.69097000
4.00400019	1.67314700
4.00500019	1.67314700
4.00600019	1.56639300
4.00700019	1.58415500
4.00800019	1.56639300
4.00900019	1.58415500
4.01000019	1.58415500
4.01100019	1.58415500
4.01200019	1.60197800
4.01300019	1.60197800
4.01400019	1.58415500
4.01500019	1.60197800
4.01600019	1.61973900
4.01700019	1.60197800
4.01800019	1.61973900
4.01900019	1.60197800
4.02000019	1.56639300
4.02100019	1.56639300
4.02200019	1.53074700
4.02300019	1.49516300
4.02400019	1.49516300
4.02500019	1.47734000
4.02600019	1.45957800
4.02700019	1.45957800
4.02800019	1.45957800
4.02900019	1.47734000
4.03000019	1.51298600
4.03100019	1.53074700
4.03200019	1.53074700
4.03300019	1.56639300
4.03400019	1.58415500
4.03500019	1.60197800
4.03600019	1.60197800
4.03700019	1.60197800
4.03800019	1.60197800
4.03900019	1.58415500
4.04000019	1.56639300
4.04100019	1.60197800
4.04200019	1.61973900
4.04300019	1.60197800
4.04400019	1.65538500
4.04500019	1.67314700
4.04600019	1.67314700
4.04700019	1.70879200
4.04800019	1.70879200
4.04900019	1.77996200
4.05000019	1.79778400
4.05100019	1.81554600
4.05200019	1.79778400
4.05300019	1.83336900
4.05400019	1.83336900
4.05500019	1.81554600
4.05600019	1.83336900
4.05700019	1.81554600
4.05800019	1.77996200
4.05900019	1.77996200
4.06000019	1.76213900
4.06100019	1.74437700
4.06200019	1.74437700
4.06300019	1.74437700
4.06400019	1.77996200
4.06500019	1.77996200
4.06600019	1.77996200
4.06700019	1.77996200
4.06800019	1.77996200
4.06900019	1.77996200
4.07000019	1.77996200
4.07100019	1.76213900
4.07200019	1.76213900
4.07300019	1.77996200
4.07400019	1.76213900
4.07500019	1.77996200
4.07600019	1.81554600
4.07700019	1.81554600
4.07800019	1.81554600
4.07900019	1.81554600
4.08000019	1.79778400
4.08100019	1.77996200
4.08200019	1.77996200
4.08300019	1.76213900
4.08400019	1.70879200
4.08500019	1.72655400
4.08600019	1.70879200
4.08700019	1.67314700
4.08800019	1.69097000
4.08900019	1.69097000
4.09000019	1.67314700
4.09100019	1.65538500
4.09200019	1.63756200
4.09300019	1.56639300
4.09400019	1.58415500
4.09500019	1.58415500
4.09600019	1.58415500
4.09700019	1.60197800
4.09800019	1.60197800
4.09900019	1.58415500
4.10000019	1.58415500
4.10100019	1.56639300
4.10200019	1.53074700
4.10300019	1.53074700
4.10400019	1.51298600
4.10500019	1.49516300
4.10600020	1.54857000
4.10700020	1.54857000
4.10800020	1.54857000
4.10900020	1.56639300
4.11000020	1.56639300
4.11100020	1.56639300
4.11200020	1.58415500
4.11300020	1.56639300
4.11400020	1.56639300
4.11500020	1.58415500
4.11600020	1.58415500
4.11700020	1.56639300
4.11800020	1.60197800
4.11900020	1.60197800
4.12000020	1.60197800
4.12100020	1.60197800
4.12200020	1.61973900
4.12300020	1.63756200
4.12400020	1.63756200
4.12500020	1.63756200
4.12600020	1.63756200
4.12700020	1.60197800
4.12800020	1.56639300
4.12900020	1.56639300
4.13000020	1.56639300
4.13100020	1.54857000
4.13200020	1.60197800
4.13300020	1.61973900
4.13400020	1.60197800
4.13500020	1.63756200
4.13600020	1.61973900
4.13700020	1.58415500
4.13800020	1.58415500
4.13900020	1.56639300
4.14000020	1.54857000
4.14100020	1.56639300
4.14200020	1.56639300
4.14300020	1.58415500
4.14400020	1.58415500
4.14500020	1.58415500
4.14600020	1.56639300
4.14700020	1.54857000
4.14800020	1.54857000
4.14900020	1.56639300
4.15000020	1.56639300
4.15100020	1.58415500
4.15200020	1.60197800
4.15300020	1.56639300
4.15400020	1.54857000
4.15500020	1.56639300
4.15600020	1.56639300
4.15700020	1.56639300
4.15800020	1.60197800
4.15900020	1.60197800
4.16000020	1.58415500
4.16100020	1.60197800
4.16200020	1.58415500
4.16300020	1.58415500
4.16400020	1.60197800
4.16500020	1.60197800
4.16600020	1.60197800
4.16700020	1.60197800
4.16800020	1.60197800
4.16900020	1.56639300
4.17000020	1.60197800
4.17100020	1.60197800
4.17200020	1.60197800
4.17300020	1.61973900
4.17400020	1.63756200
4.17500020	1.61973900
4.17600020	1.60197800
4.17700020	1.56639300
4.17800020	1.56639300
4.17900020	1.56639300
4.18000020	1.58415500
4.18100020	1.60197800
4.18200020	1.61973900
4.18300020	1.63756200
4.18400020	1.61973900
4.18500020	1.63756200
4.18600020	1.63756200
4.18700020	1.61973900
4.18800020	1.63756200
4.18900020	1.63756200
4.19000020	1.61973900
4.19100020	1.63756200
4.19200020	1.65538500
4.19300020	1.63756200
4.19400020	1.65538500
4.19500020	1.65538500
4.19600020	1.63756200
4.19700020	1.63756200
4.19800020	1.63756200
4.19900020	1.63756200
4.20000020	1.65538500
4.20100020	1.67314700
4.20200020	1.67314700
4.20300020	1.69097000
4.20400020	1.70879200
4.20500020	1.77996200
4.20600020	1.77996200
4.20700020	1.76213900
4.20800020	1.74437700
4.20900020	1.72655400
4.21000020	1.72655400
4.21100020	1.70879200
4.21200020	1.74437700
4.21300020	1.72655400
4.21400020	1.74437700
4.21500020	1.74437700
4.21600020	1.76213900
4.21700020	1.77996200
4.21800020	1.77996200
4.21900020	1.76213900
4.22000020	1.74437700
4.22100020	1.70879200
4.22200020	1.69097000
4.22300020	1.70879200
4.22400020	1.69097000
4.22500020	1.60197800
4.22600020	1.60197800
4.22700020	1.61973900
4.22800020	1.60197800
4.22900020	1.63756200
4.23000020	1.67314700
4.23100020	1.67314700
4.23200020	1.69097000
4.23300020	1.72655400
4.23400020	1.70879200
4.23500020	1.70879200
4.23600020	1.70879200
4.23700020	1.70879200
4.23800020	1.74437700
4.23900020	1.74437700
4.24000020	1.70879200
4.24100020	1.69097000
4.24200020	1.67314700
4.24300020	1.65538500
4.24400020	1.61973900
4.24500020	1.63756200
4.24600020	1.63756200
4.24700020	1.63756200
4.24800020	1.65538500
4.24900020	1.63756200
4.25000020	1.63756200
4.25100020	1.70879200
4.25200020	1.69097000
4.25300020	1.70879200
4.25400020	1.69097000
4.25500020	1.67314700
4.25600020	1.60197800
4.25700020	1.60197800
4.25800020	1.56639300
4.25900020	1.58415500
4.26000020	1.58415500
4.26100020	1.58415500
4.26200020	1.60197800
4.26300020	1.60197800
4.26400020	1.65538500
4.26500020	1.69097000
4.26600020	1.67314700
4.26700020	1.69097000
4.26800020	1.67314700
4.26900020	1.61973900
4.27000020	1.53074700
4.27100020	1.53074700
4.27200020	1.53074700
4.27300020	1.51298600
4.27400020	1.53074700
4.27500020	1.53074700
4.27600020	1.51298600
4.27700020	1.53074700
4.27800020	1.49516300
4.27900020	1.47734000
4.28000020	1.47734000
4.28100020	1.47734000
4.28200020	1.45957800
4.28300020	1.49516300
4.28400020	1.47734000
4.28500020	1.53074700
4.28600020	1.53074700
4.28700020	1.47734000
4.28800020	1.49516300
4.28900020	1.47734000
4.29000020	1.45957800
4.29100020	1.45957800
4.29200020	1.44175500
4.29300020	1.42399400
4.29400020	1.45957800
4.29500020	1.47734000
4.29600020	1.49516300
4.29700020	1.53074700
4.29800020	1.53074700
4.29900020	1.51298600
4.30000020	1.53074700
4.30100020	1.51298600
4.30200020	1.51298600
4.30300020	1.53074700
4.30400020	1.54857000
4.30500020	1.56639300
4.30600020	1.56639300
4.30700020	1.60197800
4.30800020	1.60197800
4.30900020	1.63756200
4.31000020	1.61973900
4.31100020	1.61973900
4.31200020	1.63756200
4.31300020	1.61973900
4.31400020	1.60197800
4.31500020	1.61973900
4.31600020	1.61973900
4.31700021	1.63756200
4.31800021	1.61973900
4.31900021	1.61973900
4.32000021	1.60197800
4.32100021	1.60197800
4.32200021	1.58415500
4.32300021	1.60197800
4.32400021	1.58415500
4.32500021	1.56639300
4.32600021	1.60197800
4.32700021	1.61973900
4.32800021	1.61973900
4.32900021	1.63756200
4.33000021	1.63756200
4.33100021	1.60197800
4.33200021	1.60197800
4.33300021	1.61973900
4.33400021	1.60197800
4.33500021	1.60197800
4.33600021	1.63756200
4.33700021	1.60197800
4.33800021	1.61973900
4.33900021	1.61973900
4.34000021	1.58415500
4.34100021	1.60197800
4.34200021	1.60197800
4.34300021	1.56639300
4.34400021	1.56639300
4.34500021	1.54857000
4.34600021	1.53074700
4.34700021	1.53074700
4.34800021	1.53074700
4.34900021	1.56639300
4.35000021	1.56639300
4.35100021	1.54857000
4.35200021	1.56639300
4.35300021	1.58415500
4.35400021	1.54857000
4.35500021	1.56639300
4.35600021	1.56639300
4.35700021	1.54857000
4.35800021	1.54857000
4.35900021	1.54857000
4.36000021	1.53074700
4.36100021	1.53074700
4.36200021	1.53074700
4.36300021	1.53074700
4.36400021	1.53074700
4.36500021	1.53074700
4.36600021	1.51298600
4.36700021	1.53074700
4.36800021	1.54857000
4.36900021	1.51298600
4.37000021	1.53074700
4.37100021	1.53074700
4.37200021	1.53074700
4.37300021	1.54857000
4.37400021	1.54857000
4.37500021	1.56639300
4.37600021	1.56639300
4.37700021	1.56639300
4.37800021	1.60197800
4.37900021	1.58415500
4.38000021	1.56639300
4.38100021	1.56639300
4.38200021	1.56639300
4.38300021	1.54857000
4.38400021	1.54857000
4.38500021	1.56639300
4.38600021	1.56639300
4.38700021	1.61973900
4.38800021	1.65538500
4.38900021	1.63756200
4.39000021	1.67314700
4.39100021	1.69097000
4.39200021	1.65538500
4.39300021	1.67314700
4.39400021	1.63756200
4.39500021	1.60197800
4.39600021	1.60197800
4.39700021	1.56639300
4.39800021	1.54857000
4.39900021	1.53074700
4.40000021	1.53074700
4.40100021	1.51298600
4.40200021	1.53074700
4.40300021	1.53074700
4.40400021	1.53074700
4.40500021	1.51298600
4.40600021	1.53074700
4.40700021	1.53074700
4.40800021	1.54857000
4.40900021	1.56639300
4.41000021	1.56639300
4.41100021	1.56639300
4.41200021	1.60197800
4.41300021	1.60197800
4.41400021	1.63756200
4.41500021	1.63756200
4.41600021	1.61973900
4.41700021	1.61973900
4.41800021	1.63756200
4.41900021	1.63756200
4.42000021	1.63756200
4.42100021	1.61973900
4.42200021	1.63756200
4.42300021	1.61973900
4.42400021	1.60197800
4.42500021	1.61973900
4.42600021	1.60197800
4.42700021	1.56639300
4.42800021	1.58415500
4.42900021	1.58415500
4.43000021	1.56639300
4.43100021	1.56639300
4.43200021	1.56639300
4.43300021	1.53074700
4.43400021	1.54857000
4.43500021	1.56639300
4.43600021	1.56639300
4.43700021	1.58415500
4.43800021	1.60197800
4.43900021	1.60197800
4.44000021	1.63756200
4.44100021	1.65538500
4.44200021	1.63756200
4.44300021	1.67314700
4.44400021	1.67314700
4.44500021	1.65538500
4.44600021	1.67314700
4.44700021	1.69097000
4.44800021	1.63756200
4.44900021	1.63756200
4.45000021	1.63756200
4.45100021	1.60197800
4.45200021	1.60197800
4.45300021	1.61973900
4.45400021	1.58415500
4.45500021	1.61973900
4.45600021	1.61973900
4.45700021	1.63756200
4.45800021	1.63756200
4.45900021	1.61973900
4.46000021	1.63756200
4.46100021	1.63756200
4.46200021	1.63756200
4.46300021	1.63756200
4.46400021	1.61973900
4.46500021	1.60197800
4.46600021	1.61973900
4.46700021	1.60197800
4.46800021	1.58415500
4.46900021	1.60197800
4.47000021	1.60197800
4.47100021	1.58415500
4.47200021	1.58415500
4.47300021	1.60197800
4.47400021	1.58415500
4.47500021	1.61973900
4.47600021	1.61973900
4.47700021	1.60197800
4.47800021	1.61973900
4.47900021	1.63756200
4.48000021	1.60197800
4.48100021	1.61973900
4.48200021	1.61973900
4.48300021	1.60197800
4.48400021	1.60197800
4.48500021	1.61973900
4.48600021	1.61973900
4.48700021	1.61973900
4.48800021	1.61973900
4.48900021	1.63756200
4.49000021	1.65538500
4.49100021	1.63756200
4.49200021	1.65538500
4.49300021	1.65538500
4.49400021	1.63756200
4.49500021	1.63756200
4.49600021	1.61973900
4.49700021	1.58415500
4.49800021	1.58415500
4.49900021	1.58415500
4.50000021	1.56639300
4.50100021	1.56639300
4.50200021	1.56639300
4.50300021	1.56639300
4.50400021	1.56639300
4.50500021	1.56639300
4.50600021	1.54857000
4.50700021	1.54857000
4.50800021	1.54857000
4.50900021	1.49516300
4.51000021	1.49516300
4.51100021	1.49516300
4.51200021	1.49516300
4.51300021	1.49516300
4.51400021	1.53074700
4.51500021	1.53074700
4.51600021	1.56639300
4.51700021	1.56639300
4.51800021	1.56639300
4.51900021	1.58415500
4.52000021	1.56639300
4.52100021	1.56639300
4.52200021	1.56639300
4.52300021	1.56639300
4.52400021	1.56639300
4.52500021	1.56639300
4.52600021	1.56639300
4.52700022	1.60197800
4.52800022	1.60197800
4.52900022	1.60197800
4.53000022	1.61973900
4.53100022	1.61973900
4.53200022	1.60197800
4.53300022	1.60197800
4.53400022	1.60197800
4.53500022	1.58415500
4.53600022	1.60197800
4.53700022	1.60197800
4.53800022	1.60197800
4.53900022	1.60197800
4.54000022	1.60197800
4.54100022	1.58415500
4.54200022	1.56639300
4.54300022	1.54857000
4.54400022	1.56639300
4.54500022	1.56639300
4.54600022	1.58415500
4.54700022	1.54857000
4.54800022	1.56639300
4.54900022	1.56639300
4.55000022	1.56639300
4.55100022	1.58415500
4.55200022	1.56639300
4.55300022	1.56639300
4.55400022	1.56639300
4.55500022	1.56639300
4.55600022	1.54857000
4.55700022	1.56639300
4.55800022	1.56639300
4.55900022	1.54857000
4.56000022	1.58415500
4.56100022	1.58415500
4.56200022	1.56639300
4.56300022	1.56639300
4.56400022	1.56639300
4.56500022	1.54857000
4.56600022	1.56639300
4.56700022	1.54857000
4.56800022	1.54857000
4.56900022	1.58415500
4.57000022	1.60197800
4.57100022	1.61973900
4.57200022	1.61973900
4.57300022	1.63756200
4.57400022	1.61973900
4.57500022	1.61973900
4.57600022	1.56639300
4.57700022	1.60197800
4.57800022	1.58415500
4.57900022	1.58415500
4.58000022	1.60197800
4.58100022	1.60197800
4.58200022	1.58415500
4.58300022	1.60197800
4.58400022	1.60197800
4.58500022	1.56639300
4.58600022	1.58415500
4.58700022	1.60197800
4.58800022	1.60197800
4.58900022	1.60197800
4.59000022	1.63756200
4.59100022	1.61973900
4.59200022	1.61973900
4.59300022	1.63756200
4.59400022	1.61973900
4.59500022	1.60197800
4.59600022	1.60197800
4.59700022	1.60197800
4.59800022	1.58415500
4.59900022	1.60197800
4.60000022	1.60197800
4.60100022	1.60197800
4.60200022	1.58415500
4.60300022	1.58415500
4.60400022	1.60197800
4.60500022	1.58415500
4.60600022	1.61973900
4.60700022	1.63756200
4.60800022	1.61973900
4.60900022	1.61973900
4.61000022	1.61973900
4.61100022	1.58415500
4.61200022	1.58415500
4.61300022	1.58415500
4.61400022	1.56639300
4.61500022	1.56639300
4.61600022	1.58415500
4.61700022	1.54857000
4.61800022	1.56639300
4.61900022	1.58415500
4.62000022	1.56639300
4.62100022	1.58415500
4.62200022	1.60197800
4.62300022	1.58415500
4.62400022	1.58415500
4.62500022	1.60197800
4.62600022	1.54857000
4.62700022	1.54857000
4.62800022	1.53074700
4.62900022	1.53074700
4.63000022	1.49516300
4.63100022	1.49516300
4.63200022	1.47734000
4.63300022	1.49516300
4.63400022	1.49516300
4.63500022	1.47734000
4.63600022	1.53074700
4.63700022	1.53074700
4.63800022	1.53074700
4.63900022	1.56639300
4.64000022	1.56639300
4.64100022	1.56639300
4.64200022	1.56639300
4.64300022	1.54857000
4.64400022	1.56639300
4.64500022	1.56639300
4.64600022	1.54857000
4.64700022	1.56639300
4.64800022	1.60197800
4.64900022	1.56639300
4.65000022	1.60197800
4.65100022	1.60197800
4.65200022	1.56639300
4.65300022	1.56639300
4.65400022	1.56639300
4.65500022	1.56639300
4.65600022	1.56639300
4.65700022	1.58415500
4.65800022	1.58415500
4.65900022	1.58415500
4.66000022	1.60197800
4.66100022	1.56639300
4.66200022	1.58415500
4.66300022	1.58415500
4.66400022	1.56639300
4.66500022	1.58415500
4.66600022	1.58415500
4.66700022	1.56639300
4.66800022	1.56639300
4.66900022	1.56639300
4.67000022	1.56639300
4.67100022	1.60197800
4.67200022	1.61973900
4.67300022	1.60197800
4.67400022	1.61973900
4.67500022	1.61973900
4.67600022	1.61973900
4.67700022	1.61973900
4.67800022	1.60197800
4.67900022	1.60197800
4.68000022	1.60197800
4.68100022	1.61973900
4.68200022	1.58415500
4.68300022	1.58415500
4.68400022	1.58415500
4.68500022	1.58415500
4.68600022	1.56639300
4.68700022	1.58415500
4.68800022	1.58415500
4.68900022	1.61973900
4.69000022	1.61973900
4.69100022	1.60197800
4.69200022	1.60197800
4.69300022	1.61973900
4.69400022	1.60197800
4.69500022	1.61973900
4.69600022	1.61973900
4.69700022	1.58415500
4.69800022	1.60197800
4.69900022	1.56639300
4.70000022	1.54857000
4.70100022	1.56639300
4.70200022	1.58415500
4.70300022	1.56639300
4.70400022	1.61973900
4.70500022	1.60197800
4.70600022	1.60197800
4.70700022	1.61973900
4.70800022	1.60197800
4.70900022	1.58415500
4.71000022	1.60197800
4.71100022	1.60197800
4.71200022	1.60197800
4.71300022	1.60197800
4.71400022	1.60197800
4.71500022	1.61973900
4.71600022	1.60197800
4.71700022	1.61973900
4.71800022	1.61973900
4.71900022	1.60197800
4.72000022	1.61973900
4.72100022	1.60197800
4.72200022	1.60197800
4.72300022	1.60197800
4.72400022	1.63756200
4.72500022	1.61973900
4.72600022	1.63756200
4.72700022	1.63756200
4.72800022	1.63756200
4.72900022	1.63756200
4.73000022	1.65538500
4.73100022	1.63756200
4.73200022	1.65538500
4.73300022	1.65538500
4.73400022	1.63756200
4.73500022	1.63756200
4.73600022	1.63756200
4.73700022	1.61973900
4.73800023	1.63756200
4.73900023	1.63756200
4.74000023	1.63756200
4.74100023	1.63756200
4.74200023	1.63756200
4.74300023	1.63756200
4.74400023	1.61973900
4.74500023	1.61973900
4.74600023	1.60197800
4.74700023	1.61973900
4.74800023	1.63756200
4.74900023	1.61973900
4.75000023	1.63756200
4.75100023	1.63756200
4.75200023	1.67314700
4.75300023	1.65538500
4.75400023	1.65538500
4.75500023	1.69097000
4.75600023	1.67314700
4.75700023	1.65538500
4.75800023	1.67314700
4.75900023	1.65538500
4.76000023	1.63756200
4.76100023	1.67314700
4.76200023	1.65538500
4.76300023	1.65538500
4.76400023	1.65538500
4.76500023	1.65538500
4.76600023	1.63756200
4.76700023	1.63756200
4.76800023	1.63756200
4.76900023	1.63756200
4.77000023	1.65538500
4.77100023	1.65538500
4.77200023	1.63756200
4.77300023	1.67314700
4.77400023	1.67314700
4.77500023	1.65538500
4.77600023	1.65538500
4.77700023	1.63756200
4.77800023	1.63756200
4.77900023	1.63756200
4.78000023	1.63756200
4.78100023	1.65538500
4.78200023	1.65538500
4.78300023	1.65538500
4.78400023	1.63756200
4.78500023	1.65538500
4.78600023	1.65538500
4.78700023	1.63756200
4.78800023	1.67314700
4.78900023	1.65538500
4.79000023	1.63756200
4.79100023	1.65538500
4.79200023	1.65538500
4.79300023	1.63756200
4.79400023	1.65538500
4.79500023	1.65538500
4.79600023	1.67314700
4.79700023	1.65538500
4.79800023	1.65538500
4.79900023	1.65538500
4.80000023	1.65538500
4.80100023	1.63756200
4.80200023	1.63756200
4.80300023	1.65538500
4.80400023	1.63756200
4.80500023	1.65538500
4.80600023	1.65538500
4.80700023	1.63756200
4.80800023	1.65538500
4.80900023	1.63756200
4.81000023	1.63756200
4.81100023	1.65538500
4.81200023	1.63756200
4.81300023	1.63756200
4.81400023	1.65538500
4.81500023	1.65538500
4.81600023	1.67314700
4.81700023	1.67314700
4.81800023	1.65538500
4.81900023	1.67314700
4.82000023	1.67314700
4.82100023	1.63756200
4.82200023	1.67314700
4.82300023	1.67314700
4.82400023	1.65538500
4.82500023	1.65538500
4.82600023	1.65538500
4.82700023	1.65538500
4.82800023	1.65538500
4.82900023	1.67314700
4.83000023	1.65538500
4.83100023	1.67314700
4.83200023	1.67314700
4.83300023	1.65538500
4.83400023	1.67314700
4.83500023	1.65538500
4.83600023	1.65538500
4.83700023	1.65538500
4.83800023	1.65538500
4.83900023	1.63756200
4.84000023	1.65538500
4.84100023	1.65538500
4.84200023	1.63756200
4.84300023	1.63756200
4.84400023	1.67314700
4.84500023	1.63756200
4.84600023	1.65538500
4.84700023	1.65538500
4.84800023	1.63756200
4.84900023	1.65538500
4.85000023	1.67314700
4.85100023	1.63756200
4.85200023	1.65538500
4.85300023	1.63756200
4.85400023	1.63756200
4.85500023	1.63756200
4.85600023	1.63756200
4.85700023	1.63756200
4.85800023	1.63756200
4.85900023	1.63756200
4.86000023	1.65538500
4.86100023	1.65538500
4.86200023	1.63756200
4.86300023	1.65538500
4.86400023	1.63756200
4.86500023	1.63756200
4.86600023	1.63756200
4.86700023	1.63756200
4.86800023	1.63756200
4.86900023	1.65538500
4.87000023	1.65538500
4.87100023	1.63756200
4.87200023	1.65538500
4.87300023	1.65538500
4.87400023	1.63756200
4.87500023	1.65538500
4.87600023	1.65538500
4.87700023	1.63756200
4.87800023	1.63756200
4.87900023	1.63756200
4.88000023	1.61973900
4.88100023	1.61973900
4.88200023	1.60197800
4.88300023	1.60197800
4.88400023	1.61973900
4.88500023	1.60197800
4.88600023	1.61973900
4.88700023	1.63756200
4.88800023	1.63756200
4.88900023	1.61973900
4.89000023	1.63756200
4.89100023	1.63756200
4.89200023	1.63756200
4.89300023	1.63756200
4.89400023	1.63756200
4.89500023	1.61973900
4.89600023	1.63756200
4.89700023	1.63756200
4.89800023	1.61973900
4.89900023	1.61973900
4.90000023	1.61973900
4.90100023	1.58415500
4.90200023	1.60197800
4.90300023	1.61973900
4.90400023	1.60197800
4.90500023	1.61973900
4.90600023	1.61973900
4.90700023	1.58415500
4.90800023	1.60197800
4.90900023	1.61973900
4.91000023	1.60197800
4.91100023	1.61973900
4.91200023	1.60197800
4.91300023	1.63756200
4.91400023	1.63756200
4.91500023	1.61973900
4.91600023	1.63756200
4.91700023	1.63756200
4.91800023	1.61973900
4.91900023	1.63756200
4.92000023	1.63756200
4.92100023	1.61973900
4.92200023	1.63756200
4.92300023	1.63756200
4.92400023	1.61973900
4.92500023	1.63756200
4.92600023	1.61973900
4.92700023	1.60197800
4.92800023	1.61973900
4.92900023	1.63756200
4.93000023	1.61973900
4.93100023	1.63756200
4.93200023	1.63756200
4.93300023	1.61973900
4.93400023	1.63756200
4.93500023	1.61973900
4.93600023	1.61973900
4.93700023	1.63756200
4.93800023	1.63756200
4.93900023	1.63756200
4.94000023	1.63756200
4.94100023	1.63756200
4.94200023	1.63756200
4.94300023	1.63756200
4.94400023	1.63756200
4.94500023	1.63756200
4.94600023	1.65538500
4.94700023	1.65538500
4.94800024	1.65538500
4.94900024	1.67314700
4.95000024	1.65538500
4.95100024	1.67314700
4.95200024	1.67314700
4.95300024	1.67314700
4.95400024	1.67314700
4.95500024	1.69097000
4.95600024	1.67314700
4.95700024	1.69097000
4.95800024	1.70879200
4.95900024	1.69097000
4.96000024	1.70879200
4.96100024	1.77996200
4.96200024	1.76213900
4.96300024	1.76213900
4.96400024	1.77996200
4.96500024	1.76213900
4.96600024	1.76213900
4.96700024	1.76213900
4.96800024	1.76213900
4.96900024	1.76213900
4.97000024	1.76213900
4.97100024	1.74437700
4.97200024	1.76213900
4.97300024	1.76213900
4.97400024	1.74437700
4.97500024	1.76213900
4.97600024	1.76213900
4.97700024	1.74437700
4.97800024	1.74437700
4.97900024	1.74437700
4.98000024	1.70879200
4.98100024	1.72655400
4.98200024	1.74437700
4.98300024	1.70879200
4.98400024	1.70879200
4.98500024	1.72655400
4.98600024	1.70879200
4.98700024	1.70879200
4.98800024	1.70879200
4.98900024	1.70879200
4.99000024	1.70879200
4.99100024	1.70879200
4.99200024	1.69097000
4.99300024	1.69097000
4.99400024	1.70879200
4.99500024	1.63756200
4.99600024	1.63756200
4.99700024	1.61973900
4.99800024	1.61973900
4.99900024	1.61973900
5.00000024	1.61973900
5.00100024	1.56639300
5.00200024	1.60197800
5.00300024	1.60197800
5.00400024	1.56639300
5.00500024	1.60197800
5.00600024	1.58415500
5.00700024	1.58415500
5.00800024	1.60197800
5.00900024	1.58415500
5.01000024	1.56639300
5.01100024	1.56639300
5.01200024	1.56639300
5.01300024	1.56639300
5.01400024	1.58415500
5.01500024	1.56639300
5.01600024	1.56639300
5.01700024	1.56639300
5.01800024	1.56639300
5.01900024	1.53074700
5.02000024	1.54857000
5.02100024	1.54857000
5.02200024	1.53074700
5.02300024	1.54857000
5.02400024	1.56639300
5.02500024	1.54857000
5.02600024	1.56639300
5.02700024	1.54857000
5.02800024	1.56639300
5.02900024	1.56639300
5.03000024	1.54857000
5.03100024	1.56639300
5.03200024	1.54857000
5.03300024	1.54857000
5.03400024	1.54857000
5.03500024	1.56639300
5.03600024	1.54857000
5.03700024	1.54857000
5.03800024	1.56639300
5.03900024	1.54857000
5.04000024	1.54857000
5.04100024	1.56639300
5.04200024	1.54857000
5.04300024	1.54857000
5.04400024	1.56639300
5.04500024	1.54857000
5.04600024	1.54857000
5.04700024	1.56639300
5.04800024	1.53074700
5.04900024	1.54857000
5.05000024	1.56639300
5.05100024	1.54857000
5.05200024	1.54857000
5.05300024	1.54857000
5.05400024	1.56639300
5.05500024	1.56639300
5.05600024	1.54857000
5.05700024	1.54857000
5.05800024	1.54857000
5.05900024	1.54857000
5.06000024	1.53074700
5.06100024	1.54857000
5.06200024	1.54857000
5.06300024	1.53074700
5.06400024	1.54857000
5.06500024	1.54857000
5.06600024	1.53074700
5.06700024	1.54857000
5.06800024	1.54857000
5.06900024	1.53074700
5.07000024	1.54857000
5.07100024	1.56639300
5.07200024	1.53074700
5.07300024	1.56639300
5.07400024	1.56639300
5.07500024	1.58415500
5.07600024	1.58415500
5.07700024	1.54857000
5.07800024	1.60197800
5.07900024	1.58415500
5.08000024	1.56639300
5.08100024	1.58415500
5.08200024	1.56639300
5.08300024	1.58415500
5.08400024	1.58415500
5.08500024	1.58415500
5.08600024	1.56639300
5.08700024	1.58415500
5.08800024	1.56639300
5.08900024	1.54857000
5.09000024	1.56639300
5.09100024	1.56639300
5.09200024	1.54857000
5.09300024	1.58415500
5.09400024	1.56639300
5.09500024	1.56639300
5.09600024	1.58415500
5.09700024	1.58415500
5.09800024	1.54857000
5.09900024	1.56639300
5.10000024	1.58415500
5.10100024	1.56639300
5.10200024	1.60197800
5.10300024	1.58415500
5.10400024	1.56639300
5.10500024	1.60197800
5.10600024	1.60197800
5.10700024	1.56639300
5.10800024	1.60197800
5.10900024	1.60197800
5.11000024	1.60197800
5.11100024	1.60197800
5.11200024	1.60197800
5.11300024	1.61973900
5.11400024	1.61973900
5.11500024	1.61973900
5.11600024	1.61973900
5.11700024	1.63756200
5.11800024	1.61973900
5.11900024	1.63756200
5.12000024	1.61973900
5.12100024	1.61973900
5.12200024	1.61973900
5.12300024	1.61973900
5.12400024	1.61973900
5.12500024	1.61973900
5.12600024	1.61973900
5.12700024	1.61973900
5.12800024	1.63756200
5.12900024	1.63756200
5.13000024	1.61973900
5.13100024	1.61973900
5.13200024	1.63756200
5.13300024	1.61973900
5.13400024	1.61973900
5.13500024	1.63756200
5.13600024	1.61973900
5.13700024	1.61973900
5.13800024	1.60197800
5.13900024	1.60197800
5.14000024	1.61973900
5.14100024	1.61973900
5.14200024	1.61973900
5.14300024	1.61973900
5.14400024	1.61973900
5.14500024	1.63756200
5.14600024	1.63756200
5.14700024	1.61973900
5.14800024	1.63756200
5.14900024	1.63756200
5.15000024	1.61973900
5.15100024	1.63756200
5.15200024	1.61973900
5.15300024	1.61973900
5.15400024	1.61973900
5.15500024	1.63756200
5.15600024	1.61973900
5.15700024	1.61973900
5.15800024	1.63756200
5.15900025	1.61973900
5.16000025	1.61973900
5.16100025	1.63756200
5.16200025	1.61973900
5.16300025	1.61973900
5.16400025	1.63756200
5.16500025	1.61973900
5.16600025	1.61973900
5.16700025	1.61973900
5.16800025	1.61973900
5.16900025	1.61973900
5.17000025	1.61973900
5.17100025	1.60197800
5.17200025	1.60197800
5.17300025	1.60197800
5.17400025	1.56639300
5.17500025	1.60197800
5.17600025	1.60197800
5.17700025	1.58415500
5.17800025	1.60197800
5.17900025	1.60197800
5.18000025	1.60197800
5.18100025	1.60197800
5.18200025	1.60197800
5.18300025	1.58415500
5.18400025	1.61973900
5.18500025	1.60197800
5.18600025	1.63756200
5.18700025	1.61973900
5.18800025	1.60197800
5.18900025	1.61973900
5.19000025	1.63756200
5.19100025	1.61973900
5.19200025	1.61973900
5.19300025	1.60197800
5.19400025	1.61973900
5.19500025	1.60197800
5.19600025	1.60197800
5.19700025	1.60197800
5.19800025	1.60197800
5.19900025	1.60197800
5.20000025	1.60197800
5.20100025	1.60197800
5.20200025	1.61973900
5.20300025	1.60197800
5.20400025	1.61973900
5.20500025	1.61973900
5.20600025	1.60197800
5.20700025	1.61973900
5.20800025	1.61973900
5.20900025	1.60197800
5.21000025	1.60197800
5.21100025	1.60197800
5.21200025	1.58415500
5.21300025	1.61973900
5.21400025	1.60197800
5.21500025	1.58415500
5.21600025	1.60197800
5.21700025	1.60197800
5.21800025	1.56639300
5.21900025	1.61973900
5.22000025	1.60197800
5.22100025	1.61973900
5.22200025	1.60197800
5.22300025	1.61973900
5.22400025	1.60197800
5.22500025	1.61973900
5.22600025	1.61973900
5.22700025	1.60197800
5.22800025	1.61973900
5.22900025	1.60197800
5.23000025	1.61973900
5.23100025	1.60197800
5.23200025	1.60197800
5.23300025	1.61973900
5.23400025	1.63756200
5.23500025	1.61973900
5.23600025	1.63756200
5.23700025	1.61973900
5.23800025	1.61973900
5.23900025	1.63756200
5.24000025	1.69097000
5.24100025	1.69097000
5.24200025	1.70879200
5.24300025	1.69097000
5.24400025	1.67314700
5.24500025	1.69097000
5.24600025	1.69097000
5.24700025	1.69097000
5.24800025	1.70879200
5.24900025	1.69097000
5.25000025	1.69097000
5.25100025	1.69097000
5.25200025	1.67314700
5.25300025	1.69097000
5.25400025	1.67314700
5.25500025	1.69097000
5.25600025	1.67314700
5.25700025	1.69097000
5.25800025	1.67314700
5.25900025	1.67314700
5.26000025	1.67314700
5.26100025	1.67314700
5.26200025	1.63756200
5.26300025	1.65538500
5.26400025	1.67314700
5.26500025	1.65538500
5.26600025	1.65538500
5.26700025	1.65538500
5.26800025	1.63756200
5.26900025	1.63756200
5.27000025	1.65538500
5.27100025	1.63756200
5.27200025	1.63756200
5.27300025	1.63756200
5.27400025	1.63756200
5.27500025	1.63756200
5.27600025	1.63756200
5.27700025	1.63756200
5.27800025	1.65538500
5.27900025	1.63756200
5.28000025	1.65538500
5.28100025	1.65538500
5.28200025	1.63756200
5.28300025	1.63756200
5.28400025	1.63756200
5.28500025	1.63756200
5.28600025	1.63756200
5.28700025	1.58415500
5.28800025	1.56639300
5.28900025	1.60197800
5.29000025	1.58415500
5.29100025	1.56639300
5.29200025	1.58415500
5.29300025	1.56639300
5.29400025	1.54857000
5.29500025	1.56639300
5.29600025	1.56639300
5.29700025	1.56639300
5.29800025	1.54857000
5.29900025	1.56639300
5.30000025	1.54857000
5.30100025	1.56639300
5.30200025	1.56639300
5.30300025	1.56639300
5.30400025	1.56639300
5.30500025	1.58415500
5.30600025	1.56639300
5.30700025	1.56639300
5.30800025	1.56639300
5.30900025	1.58415500
5.31000025	1.56639300
5.31100025	1.56639300
5.31200025	1.56639300
5.31300025	1.56639300
5.31400025	1.56639300
5.31500025	1.54857000
5.31600025	1.58415500
5.31700025	1.58415500
5.31800025	1.60197800
5.31900025	1.60197800
5.32000025	1.60197800
5.32100025	1.61973900
5.32200025	1.69097000
5.32300025	1.67314700
5.32400025	1.69097000
5.32500025	1.69097000
5.32600025	1.67314700
5.32700025	1.70879200
5.32800025	1.69097000
5.32900025	1.69097000
5.33000025	1.70879200
5.33100025	1.70879200
5.33200025	1.70879200
5.33300025	1.72655400
5.33400025	1.74437700
5.33500025	1.72655400
5.33600025	1.72655400
5.33700025	1.72655400
5.33800025	1.72655400
5.33900025	1.74437700
5.34000025	1.76213900
5.34100025	1.74437700
5.34200025	1.76213900
5.34300025	1.76213900
5.34400025	1.76213900
5.34500025	1.76213900
5.34600025	1.74437700
5.34700025	1.74437700
5.34800025	1.76213900
5.34900025	1.77996200
5.35000025	1.76213900
5.35100025	1.77996200
5.35200025	1.77996200
5.35300025	1.76213900
5.35400025	1.77996200
5.35500025	1.77996200
5.35600025	1.77996200
5.35700025	1.79778400
5.35800025	1.77996200
5.35900025	1.77996200
5.36000025	1.77996200
5.36100025	1.77996200
5.36200025	1.77996200
5.36300025	1.79778400
5.36400025	1.79778400
5.36500025	1.79778400
5.36600025	1.79778400
5.36700025	1.77996200
5.36800025	1.79778400
5.36900026	1.81554600
5.37000026	1.79778400
5.37100026	1.81554600
5.37200026	1.81554600
5.37300026	1.79778400
5.37400026	1.79778400
5.37500026	1.81554600
5.37600026	1.77996200
5.37700026	1.79778400
5.37800026	1.79778400
5.37900026	1.77996200
5.38000026	1.79778400
5.38100026	1.77996200
5.38200026	1.76213900
5.38300026	1.77996200
5.38400026	1.77996200
5.38500026	1.77996200
5.38600026	1.77996200
5.38700026	1.76213900
5.38800026	1.76213900
5.38900026	1.76213900
5.39000026	1.76213900
5.39100026	1.76213900
5.39200026	1.76213900
5.39300026	1.76213900
5.39400026	1.74437700
5.39500026	1.74437700
5.39600026	1.74437700
5.39700026	1.76213900
5.39800026	1.76213900
5.39900026	1.72655400
5.40000026	1.74437700
5.40100026	1.74437700
5.40200026	1.72655400
5.40300026	1.74437700
5.40400026	1.72655400
5.40500026	1.70879200
5.40600026	1.70879200
5.40700026	1.72655400
5.40800026	1.70879200
5.40900026	1.70879200
5.41000026	1.69097000
5.41100026	1.69097000
5.41200026	1.69097000
5.41300026	1.69097000
5.41400026	1.65538500
5.41500026	1.67314700
5.41600026	1.67314700
5.41700026	1.65538500
5.41800026	1.65538500
5.41900026	1.65538500
5.42000026	1.63756200
5.42100026	1.63756200
5.42200026	1.63756200
5.42300026	1.63756200
5.42400026	1.63756200
5.42500026	1.63756200
5.42600026	1.63756200
5.42700026	1.65538500
5.42800026	1.63756200
5.42900026	1.63756200
5.43000026	1.63756200
5.43100026	1.61973900
5.43200026	1.61973900
5.43300026	1.61973900
5.43400026	1.60197800
5.43500026	1.60197800
5.43600026	1.60197800
5.43700026	1.58415500
5.43800026	1.60197800
5.43900026	1.60197800
5.44000026	1.56639300
5.44100026	1.58415500
5.44200026	1.56639300
5.44300026	1.56639300
5.44400026	1.56639300
5.44500026	1.56639300
5.44600026	1.56639300
5.44700026	1.56639300
5.44800026	1.56639300
5.44900026	1.56639300
5.45000026	1.56639300
5.45100026	1.56639300
5.45200026	1.56639300
5.45300026	1.58415500
5.45400026	1.56639300
5.45500026	1.58415500
5.45600026	1.58415500
5.45700026	1.56639300
5.45800026	1.58415500
5.45900026	1.58415500
5.46000026	1.56639300
5.46100026	1.60197800
5.46200026	1.56639300
5.46300026	1.54857000
5.46400026	1.56639300
5.46500026	1.49516300
5.46600026	1.49516300
5.46700026	1.49516300
5.46800026	1.47734000
5.46900026	1.47734000
5.47000026	1.49516300
5.47100026	1.49516300
5.47200026	1.47734000
5.47300026	1.49516300
5.47400026	1.47734000
5.47500026	1.47734000
5.47600026	1.47734000
5.47700026	1.49516300
5.47800026	1.47734000
5.47900026	1.49516300
5.48000026	1.49516300
5.48100026	1.49516300
5.48200026	1.49516300
5.48300026	1.47734000
5.48400026	1.49516300
5.48500026	1.49516300
5.48600026	1.47734000
5.48700026	1.49516300
5.48800026	1.47734000
5.48900026	1.47734000
5.49000026	1.49516300
5.49100026	1.47734000
5.49200026	1.47734000
5.49300026	1.49516300
5.49400026	1.47734000
5.49500026	1.45957800
5.49600026	1.49516300
5.49700026	1.49516300
5.49800026	1.49516300
5.49900026	1.49516300
5.50000026	1.49516300
5.50100026	1.49516300
5.50200026	1.49516300
5.50300026	1.49516300
5.50400026	1.49516300
5.50500026	1.49516300
5.50600026	1.49516300
5.50700026	1.51298600
5.50800026	1.51298600
5.50900026	1.51298600
5.51000026	1.53074700
5.51100026	1.51298600
5.51200026	1.51298600
5.51300026	1.53074700
5.51400026	1.53074700
5.51500026	1.53074700
5.51600026	1.53074700
5.51700026	1.51298600
5.51800026	1.53074700
5.51900026	1.53074700
5.52000026	1.54857000
5.52100026	1.53074700
5.52200026	1.54857000
5.52300026	1.53074700
5.52400026	1.53074700
5.52500026	1.54857000
5.52600026	1.54857000
5.52700026	1.53074700
5.52800026	1.53074700
5.52900026	1.53074700
5.53000026	1.53074700
5.53100026	1.54857000
5.53200026	1.54857000
5.53300026	1.54857000
5.53400026	1.53074700
5.53500026	1.54857000
5.53600026	1.54857000
5.53700026	1.54857000
5.53800026	1.54857000
5.53900026	1.54857000
5.54000026	1.54857000
5.54100026	1.54857000
5.54200026	1.53074700
5.54300026	1.53074700
5.54400026	1.54857000
5.54500026	1.53074700
5.54600026	1.54857000
5.54700026	1.54857000
5.54800026	1.53074700
5.54900026	1.56639300
5.55000026	1.54857000
5.55100026	1.56639300
5.55200026	1.58415500
5.55300026	1.56639300
5.55400026	1.56639300
5.55500026	1.56639300
5.55600026	1.56639300
5.55700026	1.56639300
5.55800026	1.56639300
5.55900026	1.56639300
5.56000026	1.56639300
5.56100026	1.54857000
5.56200026	1.54857000
5.56300026	1.56639300
5.56400026	1.56639300
5.56500026	1.54857000
5.56600026	1.53074700
5.56700026	1.56639300
5.56800026	1.53074700
5.56900026	1.56639300
5.57000026	1.56639300
5.57100026	1.56639300
5.57200026	1.58415500
5.57300026	1.56639300
5.57400026	1.60197800
5.57500026	1.60197800
5.57600026	1.58415500
5.57700026	1.60197800
5.57800026	1.56639300
5.57900026	1.56639300
5.58000027	1.56639300
5.58100027	1.56639300
5.58200027	1.56639300
5.58300027	1.58415500
5.58400027	1.58415500
5.58500027	1.56639300
5.58600027	1.58415500
5.58700027	1.60197800
5.58800027	1.58415500
5.58900027	1.60197800
5.59000027	1.60197800
5.59100027	1.60197800
5.59200027	1.60197800
5.59300027	1.60197800
5.59400027	1.61973900
5.59500027	1.61973900
5.59600027	1.60197800
5.59700027	1.60197800
5.59800027	1.60197800
5.59900027	1.58415500
5.60000027	1.60197800
5.60100027	1.60197800
5.60200027	1.60197800
5.60300027	1.60197800
5.60400027	1.60197800
5.60500027	1.60197800
5.60600027	1.60197800
5.60700027	1.60197800
5.60800027	1.58415500
5.60900027	1.60197800
5.61000027	1.60197800
5.61100027	1.60197800
5.61200027	1.60197800
5.61300027	1.60197800
5.61400027	1.60197800
5.61500027	1.60197800
5.61600027	1.60197800
5.61700027	1.60197800
5.61800027	1.58415500
5.61900027	1.60197800
5.62000027	1.58415500
5.62100027	1.56639300
5.62200027	1.56639300
5.62300027	1.54857000
5.62400027	1.58415500
5.62500027	1.58415500
5.62600027	1.56639300
5.62700027	1.60197800
5.62800027	1.58415500
5.62900027	1.56639300
5.63000027	1.60197800
5.63100027	1.56639300
5.63200027	1.58415500
5.63300027	1.60197800
5.63400027	1.56639300
5.63500027	1.60197800
5.63600027	1.60197800
5.63700027	1.58415500
5.63800027	1.58415500
5.63900027	1.58415500
5.64000027	1.56639300
5.64100027	1.56639300
5.64200027	1.56639300
5.64300027	1.54857000
5.64400027	1.56639300
5.64500027	1.56639300
5.64600027	1.56639300
5.64700027	1.56639300
5.64800027	1.56639300
5.64900027	1.56639300
5.65000027	1.56639300
5.65100027	1.56639300
5.65200027	1.53074700
5.65300027	1.56639300
5.65400027	1.56639300
5.65500027	1.53074700
5.65600027	1.54857000
5.65700027	1.54857000
5.65800027	1.53074700
5.65900027	1.54857000
5.66000027	1.56639300
5.66100027	1.53074700
5.66200027	1.56639300
5.66300027	1.54857000
5.66400027	1.56639300
5.66500027	1.56639300
5.66600027	1.54857000
5.66700027	1.56639300
5.66800027	1.56639300
5.66900027	1.54857000
5.67000027	1.54857000
5.67100027	1.56639300
5.67200027	1.56639300
5.67300027	1.56639300
5.67400027	1.56639300
5.67500027	1.54857000
5.67600027	1.56639300
5.67700027	1.54857000
5.67800027	1.54857000
5.67900027	1.54857000
5.68000027	1.54857000
5.68100027	1.53074700
5.68200027	1.56639300
5.68300027	1.54857000
5.68400027	1.51298600
5.68500027	1.53074700
5.68600027	1.54857000
5.68700027	1.53074700
5.68800027	1.53074700
5.68900027	1.56639300
5.69000027	1.54857000
5.69100027	1.56639300
5.69200027	1.56639300
5.69300027	1.56639300
5.69400027	1.56639300
5.69500027	1.56639300
5.69600027	1.60197800
5.69700027	1.60197800
5.69800027	1.58415500
5.69900027	1.60197800
5.70000027	1.60197800
5.70100027	1.56639300
5.70200027	1.58415500
5.70300027	1.56639300
5.70400027	1.56639300
5.70500027	1.58415500
5.70600027	1.58415500
5.70700027	1.58415500
5.70800027	1.58415500
5.70900027	1.58415500
5.71000027	1.56639300
5.71100027	1.58415500
5.71200027	1.58415500
5.71300027	1.56639300
5.71400027	1.58415500
5.71500027	1.58415500
5.71600027	1.56639300
5.71700027	1.58415500
5.71800027	1.58415500
5.71900027	1.56639300
5.72000027	1.58415500
5.72100027	1.58415500
5.72200027	1.56639300
5.72300027	1.61973900
5.72400027	1.61973900
5.72500027	1.63756200
5.72600027	1.63756200
5.72700027	1.61973900
5.72800027	1.63756200
5.72900027	1.63756200
5.73000027	1.61973900
5.73100027	1.61973900
5.73200027	1.61973900
5.73300027	1.63756200
5.73400027	1.63756200
5.73500027	1.63756200
5.73600027	1.60197800
5.73700027	1.63756200
5.73800027	1.63756200
5.73900027	1.61973900
5.74000027	1.60197800
5.74100027	1.60197800
5.74200027	1.58415500
5.74300027	1.61973900
5.74400027	1.63756200
5.74500027	1.61973900
5.74600027	1.65538500
5.74700027	1.65538500
5.74800027	1.67314700
5.74900027	1.65538500
5.75000027	1.63756200
5.75100027	1.63756200
5.75200027	1.65538500
5.75300027	1.63756200
5.75400027	1.63756200
5.75500027	1.63756200
5.75600027	1.63756200
5.75700027	1.63756200
5.75800027	1.63756200
5.75900027	1.63756200
5.76000027	1.63756200
5.76100027	1.63756200
5.76200027	1.65538500
5.76300027	1.65538500
5.76400027	1.65538500
5.76500027	1.63756200
5.76600027	1.63756200
5.76700027	1.63756200
5.76800027	1.61973900
5.76900027	1.63756200
5.77000027	1.63756200
5.77100027	1.63756200
5.77200027	1.65538500
5.77300027	1.65538500
5.77400027	1.63756200
5.77500027	1.63756200
5.77600027	1.63756200
5.77700027	1.61973900
5.77800027	1.63756200
5.77900027	1.63756200
5.78000027	1.63756200
5.78100027	1.65538500
5.78200027	1.63756200
5.78300027	1.67314700
5.78400027	1.67314700
5.78500027	1.63756200
5.78600027	1.63756200
5.78700027	1.63756200
5.78800027	1.63756200
5.78900027	1.65538500
5.79000028	1.67314700
5.79100028	1.69097000
5.79200028	1.69097000
5.79300028	1.74437700
5.79400028	1.70879200
5.79500028	1.72655400
5.79600028	1.70879200
5.79700028	1.70879200
5.79800028	1.72655400
5.79900028	1.72655400
5.80000028	1.70879200
5.80100028	1.74437700
5.80200028	1.72655400
5.80300028	1.69097000
5.80400028	1.70879200
5.80500028	1.70879200
5.80600028	1.69097000
5.80700028	1.69097000
5.80800028	1.70879200
5.80900028	1.67314700
5.81000028	1.70879200
5.81100028	1.70879200
5.81200028	1.69097000
5.81300028	1.70879200
5.81400028	1.72655400
5.81500028	1.72655400
5.81600028	1.74437700
5.81700028	1.72655400
5.81800028	1.70879200
5.81900028	1.70879200
5.82000028	1.69097000
5.82100028	1.69097000
5.82200028	1.69097000
5.82300028	1.67314700
5.82400028	1.67314700
5.82500028	1.60197800
5.82600028	1.58415500
5.82700028	1.58415500
5.82800028	1.58415500
5.82900028	1.56639300
5.83000028	1.58415500
5.83100028	1.58415500
5.83200028	1.61973900
5.83300028	1.63756200
5.83400028	1.63756200
5.83500028	1.63756200
5.83600028	1.72655400
5.83700028	1.70879200
5.83800028	1.69097000
5.83900028	1.69097000
5.84000028	1.69097000
5.84100028	1.69097000
5.84200028	1.69097000
5.84300028	1.67314700
5.84400028	1.69097000
5.84500028	1.60197800
5.84600028	1.60197800
5.84700028	1.58415500
5.84800028	1.56639300
5.84900028	1.56639300
5.85000028	1.56639300
5.85100028	1.56639300
5.85200028	1.54857000
5.85300028	1.56639300
5.85400028	1.56639300
5.85500028	1.54857000
5.85600028	1.58415500
5.85700028	1.58415500
5.85800028	1.56639300
5.85900028	1.60197800
5.86000028	1.58415500
5.86100028	1.56639300
5.86200028	1.60197800
5.86300028	1.60197800
5.86400028	1.58415500
5.86500028	1.61973900
5.86600028	1.63756200
5.86700028	1.67314700
5.86800028	1.67314700
5.86900028	1.63756200
5.87000028	1.69097000
5.87100028	1.65538500
5.87200028	1.54857000
5.87300028	1.56639300
5.87400028	1.54857000
5.87500028	1.56639300
5.87600028	1.56639300
5.87700028	1.60197800
5.87800028	1.60197800
5.87900028	1.60197800
5.88000028	1.58415500
5.88100028	1.60197800
5.88200028	1.56639300
5.88300028	1.54857000
5.88400028	1.54857000
5.88500028	1.53074700
5.88600028	1.53074700
5.88700028	1.53074700
5.88800028	1.53074700
5.88900028	1.51298600
5.89000028	1.54857000
5.89100028	1.56639300
5.89200028	1.56639300
5.89300028	1.56639300
5.89400028	1.58415500
5.89500028	1.58415500
5.89600028	1.60197800
5.89700028	1.61973900
5.89800028	1.60197800
5.89900028	1.63756200
5.90000028	1.63756200
5.90100028	1.63756200
5.90200028	1.65538500
5.90300028	1.65538500
5.90400028	1.63756200
5.90500028	1.69097000
5.90600028	1.69097000
5.90700028	1.63756200
5.90800028	1.61973900
5.90900028	1.60197800
5.91000028	1.60197800
5.91100028	1.60197800
5.91200028	1.56639300
5.91300028	1.58415500
5.91400028	1.60197800
5.91500028	1.60197800
5.91600028	1.61973900
5.91700028	1.63756200
5.91800028	1.61973900
5.91900028	1.63756200
5.92000028	1.63756200
5.92100028	1.63756200
5.92200028	1.65538500
5.92300028	1.65538500
5.92400028	1.63756200
5.92500028	1.67314700
5.92600028	1.74437700
5.92700028	1.72655400
5.92800028	1.72655400
5.92900028	1.74437700
5.93000028	1.70879200
5.93100028	1.70879200
5.93200028	1.70879200
5.93300028	1.70879200
5.93400028	1.70879200
5.93500028	1.70879200
5.93600028	1.70879200
5.93700028	1.74437700
5.93800028	1.74437700
5.93900028	1.74437700
5.94000028	1.77996200
5.94100028	1.74437700
5.94200028	1.76213900
5.94300028	1.74437700
5.94400028	1.74437700
5.94500028	1.74437700
5.94600028	1.74437700
5.94700028	1.72655400
5.94800028	1.72655400
5.94900028	1.72655400
5.95000028	1.72655400
5.95100028	1.74437700
5.95200028	1.76213900
5.95300028	1.76213900
5.95400028	1.77996200
5.95500028	1.79778400
5.95600028	1.77996200
5.95700028	1.79778400
5.95800028	1.77996200
5.95900028	1.76213900
5.96000028	1.74437700
5.96100028	1.72655400
5.96200028	1.74437700
5.96300028	1.74437700
5.96400028	1.76213900
5.96500028	1.76213900
5.96600028	1.81554600
5.96700028	1.77996200
5.96800028	1.79778400
5.96900028	1.81554600
5.97000028	1.76213900
5.97100028	1.77996200
5.97200028	1.74437700
5.97300028	1.70879200
5.97400028	1.70879200
5.97500028	1.70879200
5.97600028	1.70879200
5.97700028	1.72655400
5.97800028	1.74437700
5.97900028	1.74437700
5.98000028	1.76213900
5.98100028	1.76213900
5.98200028	1.74437700
5.98300028	1.72655400
5.98400028	1.70879200
5.98500028	1.67314700
5.98600028	1.69097000
5.98700028	1.69097000
5.98800028	1.67314700
5.98900028	1.69097000
5.99000028	1.72655400
5.99100028	1.74437700
5.99200028	1.76213900
5.99300028	1.77996200
5.99400028	1.76213900
5.99500028	1.74437700
5.99600028	1.70879200
5.99700028	1.67314700
5.99800028	1.65538500
5.99900028	1.61973900
6.00000028	1.60197800
6.00100029	1.60197800
6.00200029	1.54857000
6.00300029	1.54857000
6.00400029	1.60197800
6.00500029	1.60197800
6.00600029	1.61973900
6.00700029	1.69097000
6.00800029	1.69097000
6.00900029	1.69097000
6.01000029	1.69097000
6.01100029	1.65538500
6.01200029	1.63756200
6.01300029	1.63756200
6.01400029	1.60197800
6.01500029	1.56639300
6.01600029	1.54857000
6.01700029	1.56639300
6.01800029	1.53074700
6.01900029	1.58415500
6.02000029	1.60197800
6.02100029	1.63756200
6.02200029	1.61973900
6.02300029	1.69097000
6.02400029	1.69097000
6.02500029	1.65538500
6.02600029	1.63756200
6.02700029	1.63756200
6.02800029	1.60197800
6.02900029	1.51298600
6.03000029	1.49516300
6.03100029	1.47734000
6.03200029	1.45957800
6.03300029	1.45957800
6.03400029	1.45957800
6.03500029	1.45957800
6.03600029	1.47734000
6.03700029	1.49516300
6.03800029	1.53074700
6.03900029	1.54857000
6.04000029	1.54857000
6.04100029	1.53074700
6.04200029	1.54857000
6.04300029	1.53074700
6.04400029	1.49516300
6.04500029	1.49516300
6.04600029	1.47734000
6.04700029	1.45957800
6.04800029	1.45957800
6.04900029	1.44175500
6.05000029	1.42399400
6.05100029	1.45957800
6.05200029	1.44175500
6.05300029	1.44175500
6.05400029	1.47734000
6.05500029	1.47734000
6.05600029	1.47734000
6.05700029	1.49516300
6.05800029	1.49516300
6.05900029	1.51298600
6.06000029	1.51298600
6.06100029	1.53074700
6.06200029	1.54857000
6.06300029	1.54857000
6.06400029	1.53074700
6.06500029	1.54857000
6.06600029	1.56639300
6.06700029	1.53074700
6.06800029	1.56639300
6.06900029	1.56639300
6.07000029	1.58415500
6.07100029	1.58415500
6.07200029	1.60197800
6.07300029	1.61973900
6.07400029	1.61973900
6.07500029	1.61973900
6.07600029	1.63756200
6.07700029	1.63756200
6.07800029	1.63756200
6.07900029	1.61973900
6.08000029	1.65538500
6.08100029	1.65538500
6.08200029	1.63756200
6.08300029	1.74437700
6.08400029	1.72655400
6.08500029	1.70879200
6.08600029	1.74437700
6.08700029	1.72655400
6.08800029	1.70879200
6.08900029	1.72655400
6.09000029	1.70879200
6.09100029	1.69097000
6.09200029	1.70879200
6.09300029	1.70879200
6.09400029	1.70879200
6.09500029	1.70879200
6.09600029	1.69097000
6.09700029	1.63756200
6.09800029	1.63756200
6.09900029	1.61973900
6.10000029	1.63756200
6.10100029	1.63756200
6.10200029	1.63756200
6.10300029	1.60197800
6.10400029	1.60197800
6.10500029	1.60197800
6.10600029	1.60197800
6.10700029	1.58415500
6.10800029	1.60197800
6.10900029	1.60197800
6.11000029	1.60197800
6.11100029	1.56639300
6.11200029	1.60197800
6.11300029	1.61973900
6.11400029	1.60197800
6.11500029	1.63756200
6.11600029	1.63756200
6.11700029	1.61973900
6.11800029	1.63756200
6.11900029	1.61973900
6.12000029	1.60197800
6.12100029	1.63756200
6.12200029	1.63756200
6.12300029	1.65538500
6.12400029	1.65538500
6.12500029	1.65538500
6.12600029	1.61973900
6.12700029	1.67314700
6.12800029	1.65538500
6.12900029	1.74437700
6.13000029	1.72655400
6.13100029	1.72655400
6.13200029	1.74437700
6.13300029	1.70879200
6.13400029	1.70879200
6.13500029	1.70879200
6.13600029	1.70879200
6.13700029	1.67314700
6.13800029	1.70879200
6.13900029	1.69097000
6.14000029	1.65538500
6.14100029	1.63756200
6.14200029	1.61973900
6.14300029	1.61973900
6.14400029	1.65538500
6.14500029	1.63756200
6.14600029	1.67314700
6.14700029	1.67314700
6.14800029	1.63756200
6.14900029	1.67314700
6.15000029	1.69097000
6.15100029	1.72655400
6.15200029	1.74437700
6.15300029	1.74437700
6.15400029	1.70879200
6.15500029	1.72655400
6.15600029	1.70879200
6.15700029	1.69097000
6.15800029	1.67314700
6.15900029	1.60197800
6.16000029	1.58415500
6.16100029	1.60197800
6.16200029	1.58415500
6.16300029	1.60197800
6.16400029	1.60197800
6.16500029	1.61973900
6.16600029	1.60197800
6.16700029	1.60197800
6.16800029	1.61973900
6.16900029	1.61973900
6.17000029	1.61973900
6.17100029	1.61973900
6.17200029	1.61973900
6.17300029	1.61973900
6.17400029	1.61973900
6.17500029	1.61973900
6.17600029	1.63756200
6.17700029	1.61973900
6.17800029	1.61973900
6.17900029	1.63756200
6.18000029	1.63756200
6.18100029	1.63756200
6.18200029	1.63756200
6.18300029	1.63756200
6.18400029	1.63756200
6.18500029	1.65538500
6.18600029	1.63756200
6.18700029	1.67314700
6.18800029	1.65538500
6.18900029	1.63756200
6.19000029	1.63756200
6.19100029	1.63756200
6.19200029	1.61973900
6.19300029	1.60197800
6.19400029	1.60197800
6.19500029	1.56639300
6.19600029	1.56639300
6.19700029	1.58415500
6.19800029	1.54857000
6.19900029	1.53074700
6.20000029	1.54857000
6.20100029	1.54857000
6.20200029	1.53074700
6.20300029	1.56639300
6.20400029	1.56639300
6.20500029	1.54857000
6.20600029	1.56639300
6.20700029	1.56639300
6.20800029	1.54857000
6.20900029	1.58415500
6.21000029	1.56639300
6.21100030	1.53074700
6.21200030	1.53074700
6.21300030	1.53074700
6.21400030	1.49516300
6.21500030	1.51298600
6.21600030	1.49516300
6.21700030	1.49516300
6.21800030	1.49516300
6.21900030	1.47734000
6.22000030	1.49516300
6.22100030	1.47734000
6.22200030	1.47734000
6.22300030	1.49516300
6.22400030	1.49516300
6.22500030	1.49516300
6.22600030	1.51298600
6.22700030	1.53074700
6.22800030	1.53074700
6.22900030	1.53074700
6.23000030	1.54857000
6.23100030	1.51298600
6.23200030	1.51298600
6.23300030	1.49516300
6.23400030	1.47734000
6.23500030	1.47734000
6.23600030	1.49516300
6.23700030	1.47734000
6.23800030	1.49516300
6.23900030	1.53074700
6.24000030	1.53074700
6.24100030	1.54857000
6.24200030	1.58415500
6.24300030	1.58415500
6.24400030	1.60197800
6.24500030	1.61973900
6.24600030	1.61973900
6.24700030	1.61973900
6.24800030	1.60197800
6.24900030	1.60197800
6.25000030	1.60197800
6.25100030	1.56639300
6.25200030	1.54857000
6.25300030	1.56639300
6.25400030	1.56639300
6.25500030	1.54857000
6.25600030	1.56639300
6.25700030	1.56639300
6.25800030	1.58415500
6.25900030	1.60197800
6.26000030	1.58415500
6.26100030	1.60197800
6.26200030	1.58415500
6.26300030	1.58415500
6.26400030	1.56639300
6.26500030	1.56639300
6.26600030	1.54857000
6.26700030	1.53074700
6.26800030	1.51298600
6.26900030	1.49516300
6.27000030	1.49516300
6.27100030	1.49516300
6.27200030	1.49516300
6.27300030	1.51298600
6.27400030	1.53074700
6.27500030	1.53074700
6.27600030	1.53074700
6.27700030	1.51298600
6.27800030	1.49516300
6.27900030	1.51298600
6.28000030	1.49516300
6.28100030	1.47734000
6.28200030	1.51298600
6.28300030	1.47734000
6.28400030	1.47734000
6.28500030	1.49516300
6.28600030	1.49516300
6.28700030	1.49516300
6.28800030	1.53074700
6.28900030	1.51298600
6.29000030	1.54857000
6.29100030	1.56639300
6.29200030	1.54857000
6.29300030	1.58415500
6.29400030	1.58415500
6.29500030	1.56639300
6.29600030	1.56639300
6.29700030	1.56639300
6.29800030	1.54857000
6.29900030	1.56639300
6.30000030	1.56639300
6.30100030	1.58415500
6.30200030	1.56639300
6.30300030	1.60197800
6.30400030	1.60197800
6.30500030	1.60197800
6.30600030	1.60197800
6.30700030	1.60197800
6.30800030	1.60197800
6.30900030	1.60197800
6.31000030	1.58415500
6.31100030	1.60197800
6.31200030	1.60197800
6.31300030	1.60197800
6.31400030	1.60197800
6.31500030	1.61973900
6.31600030	1.60197800
6.31700030	1.60197800
6.31800030	1.60197800
6.31900030	1.60197800
6.32000030	1.60197800
6.32100030	1.61973900
6.32200030	1.61973900
6.32300030	1.63756200
6.32400030	1.63756200
6.32500030	1.63756200
6.32600030	1.63756200
6.32700030	1.63756200
6.32800030	1.61973900
6.32900030	1.63756200
6.33000030	1.63756200
6.33100030	1.65538500
6.33200030	1.67314700
6.33300030	1.67314700
6.33400030	1.67314700
6.33500030	1.70879200
6.33600030	1.69097000
6.33700030	1.70879200
6.33800030	1.70879200
6.33900030	1.70879200
6.34000030	1.70879200
6.34100030	1.70879200
6.34200030	1.69097000
6.34300030	1.70879200
6.34400030	1.70879200
6.34500030	1.70879200
6.34600030	1.70879200
6.34700030	1.70879200
6.34800030	1.69097000
6.34900030	1.69097000
6.35000030	1.70879200
6.35100030	1.67314700
6.35200030	1.69097000
6.35300030	1.69097000
6.35400030	1.67314700
6.35500030	1.67314700
6.35600030	1.65538500
6.35700030	1.63756200
6.35800030	1.61973900
6.35900030	1.60197800
6.36000030	1.60197800
6.36100030	1.58415500
6.36200030	1.60197800
6.36300030	1.60197800
6.36400030	1.60197800
6.36500030	1.60197800
6.36600030	1.61973900
6.36700030	1.61973900
6.36800030	1.60197800
6.36900030	1.61973900
6.37000030	1.61973900
6.37100030	1.56639300
6.37200030	1.60197800
6.37300030	1.58415500
6.37400030	1.54857000
6.37500030	1.54857000
6.37600030	1.53074700
6.37700030	1.51298600
6.37800030	1.51298600
6.37900030	1.51298600
6.38000030	1.49516300
6.38100030	1.49516300
6.38200030	1.49516300
6.38300030	1.47734000
6.38400030	1.49516300
6.38500030	1.49516300
6.38600030	1.49516300
6.38700030	1.49516300
6.38800030	1.51298600
6.38900030	1.51298600
6.39000030	1.53074700
6.39100030	1.53074700
6.39200030	1.53074700
6.39300030	1.53074700
6.39400030	1.51298600
6.39500030	1.51298600
6.39600030	1.47734000
6.39700030	1.45957800
6.39800030	1.47734000
6.39900030	1.49516300
6.40000030	1.47734000
6.40100030	1.49516300
6.40200030	1.49516300
6.40300030	1.47734000
6.40400030	1.49516300
6.40500030	1.49516300
6.40600030	1.45957800
6.40700030	1.47734000
6.40800030	1.49516300
6.40900030	1.45957800
6.41000030	1.49516300
6.41100030	1.49516300
6.41200030	1.47734000
6.41300030	1.53074700
6.41400030	1.53074700
6.41500030	1.53074700
6.41600030	1.54857000
6.41700030	1.53074700
6.41800030	1.53074700
6.41900030	1.54857000
6.42000030	1.53074700
6.42100030	1.54857000
6.42200031	1.53074700
6.42300031	1.53074700
6.42400031	1.53074700
6.42500031	1.54857000
6.42600031	1.54857000
6.42700031	1.56639300
6.42800031	1.56639300
6.42900031	1.56639300
6.43000031	1.58415500
6.43100031	1.60197800
6.43200031	1.60197800
6.43300031	1.61973900
6.43400031	1.61973900
6.43500031	1.61973900
6.43600031	1.61973900
6.43700031	1.61973900
6.43800031	1.61973900
6.43900031	1.61973900
6.44000031	1.61973900
6.44100031	1.60197800
6.44200031	1.61973900
6.44300031	1.60197800
6.44400031	1.61973900
6.44500031	1.61973900
6.44600031	1.61973900
6.44700031	1.60197800
6.44800031	1.61973900
6.44900031	1.60197800
6.45000031	1.60197800
6.45100031	1.61973900
6.45200031	1.61973900
6.45300031	1.63756200
6.45400031	1.63756200
6.45500031	1.61973900
6.45600031	1.61973900
6.45700031	1.63756200
6.45800031	1.60197800
6.45900031	1.61973900
6.46000031	1.63756200
6.46100031	1.63756200
6.46200031	1.63756200
6.46300031	1.63756200
6.46400031	1.63756200
6.46500031	1.63756200
6.46600031	1.63756200
6.46700031	1.63756200
6.46800031	1.63756200
6.46900031	1.63756200
6.47000031	1.60197800
6.47100031	1.61973900
6.47200031	1.61973900
6.47300031	1.60197800
6.47400031	1.60197800
6.47500031	1.61973900
6.47600031	1.60197800
6.47700031	1.61973900
6.47800031	1.63756200
6.47900031	1.61973900
6.48000031	1.63756200
6.48100031	1.63756200
6.48200031	1.63756200
6.48300031	1.63756200
6.48400031	1.61973900
6.48500031	1.60197800
6.48600031	1.60197800
6.48700031	1.60197800
6.48800031	1.56639300
6.48900031	1.61973900
6.49000031	1.60197800
6.49100031	1.63756200
6.49200031	1.63756200
6.49300031	1.63756200
6.49400031	1.63756200
6.49500031	1.65538500
6.49600031	1.63756200
6.49700031	1.65538500
6.49800031	1.65538500
6.49900031	1.65538500
6.50000031	1.63756200
6.50100031	1.61973900
6.50200031	1.61973900
6.50300031	1.61973900
6.50400031	1.60197800
6.50500031	1.60197800
6.50600031	1.63756200
6.50700031	1.61973900
6.50800031	1.61973900
6.50900031	1.63756200
6.51000031	1.61973900
6.51100031	1.61973900
6.51200031	1.61973900
6.51300031	1.63756200
6.51400031	1.63756200
6.51500031	1.65538500
6.51600031	1.63756200
6.51700031	1.61973900
6.51800031	1.61973900
6.51900031	1.61973900
6.52000031	1.61973900
6.52100031	1.61973900
6.52200031	1.63756200
6.52300031	1.63756200
6.52400031	1.63756200
6.52500031	1.63756200
6.52600031	1.63756200
6.52700031	1.63756200
6.52800031	1.63756200
6.52900031	1.67314700
6.53000031	1.67314700
6.53100031	1.67314700
6.53200031	1.69097000
6.53300031	1.69097000
6.53400031	1.67314700
6.53500031	1.69097000
6.53600031	1.69097000
6.53700031	1.65538500
6.53800031	1.69097000
6.53900031	1.67314700
6.54000031	1.63756200
6.54100031	1.65538500
6.54200031	1.63756200
6.54300031	1.63756200
6.54400031	1.65538500
6.54500031	1.63756200
6.54600031	1.63756200
6.54700031	1.65538500
6.54800031	1.63756200
6.54900031	1.61973900
6.55000031	1.65538500
6.55100031	1.63756200
6.55200031	1.61973900
6.55300031	1.63756200
6.55400031	1.63756200
6.55500031	1.63756200
6.55600031	1.63756200
6.55700031	1.63756200
6.55800031	1.61973900
6.55900031	1.61973900
6.56000031	1.61973900
6.56100031	1.60197800
6.56200031	1.63756200
6.56300031	1.61973900
6.56400031	1.60197800
6.56500031	1.61973900
6.56600031	1.61973900
6.56700031	1.60197800
6.56800031	1.63756200
6.56900031	1.61973900
6.57000031	1.60197800
6.57100031	1.63756200
6.57200031	1.63756200
6.57300031	1.61973900
6.57400031	1.63756200
6.57500031	1.61973900
6.57600031	1.58415500
6.57700031	1.61973900
6.57800031	1.61973900
6.57900031	1.60197800
6.58000031	1.61973900
6.58100031	1.61973900
6.58200031	1.60197800
6.58300031	1.61973900
6.58400031	1.61973900
6.58500031	1.63756200
6.58600031	1.63756200
6.58700031	1.63756200
6.58800031	1.65538500
6.58900031	1.65538500
6.59000031	1.63756200
6.59100031	1.65538500
6.59200031	1.65538500
6.59300031	1.63756200
6.59400031	1.63756200
6.59500031	1.65538500
6.59600031	1.63756200
6.59700031	1.63756200
6.59800031	1.67314700
6.59900031	1.65538500
6.60000031	1.67314700
6.60100031	1.69097000
6.60200031	1.67314700
6.60300031	1.67314700
6.60400031	1.67314700
6.60500031	1.65538500
6.60600031	1.67314700
6.60700031	1.67314700
6.60800031	1.65538500
6.60900031	1.67314700
6.61000031	1.67314700
6.61100031	1.63756200
6.61200031	1.67314700
6.61300031	1.67314700
6.61400031	1.65538500
6.61500031	1.65538500
6.61600031	1.63756200
6.61700031	1.65538500
6.61800031	1.67314700
6.61900031	1.65538500
6.62000031	1.63756200
6.62100031	1.65538500
6.62200031	1.63756200
6.62300031	1.63756200
6.62400031	1.63756200
6.62500031	1.63756200
6.62600031	1.63756200
6.62700031	1.63756200
6.62800031	1.61973900
6.62900031	1.63756200
6.63000031	1.63756200
6.63100031	1.63756200
6.63200032	1.63756200
6.63300032	1.63756200
6.63400032	1.63756200
6.63500032	1.63756200
6.63600032	1.63756200
6.63700032	1.63756200
6.63800032	1.63756200
6.63900032	1.63756200
6.64000032	1.63756200
6.64100032	1.63756200
6.64200032	1.63756200
6.64300032	1.63756200
6.64400032	1.63756200
6.64500032	1.63756200
6.64600032	1.63756200
6.64700032	1.65538500
6.64800032	1.63756200
6.64900032	1.63756200
6.65000032	1.67314700
6.65100032	1.65538500
6.65200032	1.67314700
6.65300032	1.67314700
6.65400032	1.63756200
6.65500032	1.67314700
6.65600032	1.65538500
6.65700032	1.63756200
6.65800032	1.65538500
6.65900032	1.67314700
6.66000032	1.65538500
6.66100032	1.67314700
6.66200032	1.67314700
6.66300032	1.65538500
6.66400032	1.65538500
6.66500032	1.65538500
6.66600032	1.63756200
6.66700032	1.65538500
6.66800032	1.63756200
6.66900032	1.63756200
6.67000032	1.65538500
6.67100032	1.63756200
6.67200032	1.63756200
6.67300032	1.63756200
6.67400032	1.63756200
6.67500032	1.63756200
6.67600032	1.65538500
6.67700032	1.61973900
6.67800032	1.63756200
6.67900032	1.63756200
6.68000032	1.61973900
6.68100032	1.63756200
6.68200032	1.63756200
6.68300032	1.63756200
6.68400032	1.63756200
6.68500032	1.63756200
6.68600032	1.63756200
6.68700032	1.65538500
6.68800032	1.63756200
6.68900032	1.63756200
6.69000032	1.63756200
6.69100032	1.63756200
6.69200032	1.63756200
6.69300032	1.61973900
6.69400032	1.63756200
6.69500032	1.60197800
6.69600032	1.63756200
6.69700032	1.63756200
6.69800032	1.63756200
6.69900032	1.63756200
6.70000032	1.63756200
6.70100032	1.63756200
6.70200032	1.63756200
6.70300032	1.63756200
6.70400032	1.65538500
6.70500032	1.63756200
6.70600032	1.63756200
6.70700032	1.65538500
6.70800032	1.63756200
6.70900032	1.63756200
6.71000032	1.65538500
6.71100032	1.65538500
6.71200032	1.63756200
6.71300032	1.65538500
6.71400032	1.65538500
6.71500032	1.65538500
6.71600032	1.65538500
6.71700032	1.65538500
6.71800032	1.63756200
6.71900032	1.65538500
6.72000032	1.63756200
6.72100032	1.63756200
6.72200032	1.63756200
6.72300032	1.63756200
6.72400032	1.63756200
6.72500032	1.63756200
6.72600032	1.63756200
6.72700032	1.63756200
6.72800032	1.63756200
6.72900032	1.63756200
6.73000032	1.63756200
6.73100032	1.63756200
6.73200032	1.63756200
6.73300032	1.61973900
6.73400032	1.61973900
6.73500032	1.61973900
6.73600032	1.61973900
6.73700032	1.63756200
6.73800032	1.63756200
6.73900032	1.61973900
6.74000032	1.63756200
6.74100032	1.63756200
6.74200032	1.63756200
6.74300032	1.63756200
6.74400032	1.63756200
6.74500032	1.63756200
6.74600032	1.63756200
6.74700032	1.63756200
6.74800032	1.63756200
6.74900032	1.65538500
6.75000032	1.65538500
6.75100032	1.63756200
6.75200032	1.65538500
6.75300032	1.65538500
6.75400032	1.65538500
6.75500032	1.65538500
6.75600032	1.65538500
6.75700032	1.65538500
6.75800032	1.65538500
6.75900032	1.65538500
6.76000032	1.63756200
6.76100032	1.65538500
6.76200032	1.65538500
6.76300032	1.63756200
6.76400032	1.65538500
6.76500032	1.65538500
6.76600032	1.63756200
6.76700032	1.63756200
6.76800032	1.63756200
6.76900032	1.63756200
6.77000032	1.65538500
6.77100032	1.63756200
6.77200032	1.63756200
6.77300032	1.61973900
6.77400032	1.63756200
6.77500032	1.61973900
6.77600032	1.61973900
6.77700032	1.61973900
6.77800032	1.61973900
6.77900032	1.61973900
6.78000032	1.63756200
6.78100032	1.61973900
6.78200032	1.63756200
6.78300032	1.63756200
6.78400032	1.63756200
6.78500032	1.63756200
6.78600032	1.65538500
6.78700032	1.67314700
6.78800032	1.67314700
6.78900032	1.63756200
6.79000032	1.67314700
6.79100032	1.67314700
6.79200032	1.65538500
6.79300032	1.65538500
6.79400032	1.63756200
6.79500032	1.63756200
6.79600032	1.63756200
6.79700032	1.61973900
6.79800032	1.60197800
6.79900032	1.63756200
6.80000032	1.63756200
6.80100032	1.63756200
6.80200032	1.65538500
6.80300032	1.65538500
6.80400032	1.65538500
6.80500032	1.67314700
6.80600032	1.69097000
6.80700032	1.70879200
6.80800032	1.74437700
6.80900032	1.72655400
6.81000032	1.70879200
6.81100032	1.70879200
6.81200032	1.70879200
6.81300032	1.70879200
6.81400032	1.70879200
6.81500032	1.70879200
6.81600032	1.70879200
6.81700032	1.70879200
6.81800032	1.69097000
6.81900032	1.70879200
6.82000032	1.70879200
6.82100032	1.69097000
6.82200032	1.70879200
6.82300032	1.70879200
6.82400032	1.70879200
6.82500032	1.70879200
6.82600032	1.72655400
6.82700032	1.72655400
6.82800032	1.74437700
6.82900032	1.76213900
6.83000032	1.74437700
6.83100032	1.74437700
6.83200032	1.74437700
6.83300032	1.72655400
6.83400032	1.72655400
6.83500032	1.70879200
6.83600032	1.70879200
6.83700032	1.70879200
6.83800032	1.70879200
6.83900032	1.70879200
6.84000032	1.70879200
6.84100032	1.70879200
6.84200032	1.70879200
6.84300033	1.70879200
6.84400033	1.70879200
6.84500033	1.70879200
6.84600033	1.70879200
6.84700033	1.69097000
6.84800033	1.70879200
6.84900033	1.70879200
6.85000033	1.70879200
6.85100033	1.70879200
6.85200033	1.70879200
6.85300033	1.70879200
6.85400033	1.70879200
6.85500033	1.70879200
6.85600033	1.70879200
6.85700033	1.70879200
6.85800033	1.70879200
6.85900033	1.69097000
6.86000033	1.69097000
6.86100033	1.69097000
6.86200033	1.67314700
6.86300033	1.67314700
6.86400033	1.65538500
6.86500033	1.63756200
6.86600033	1.65538500
6.86700033	1.58415500
6.86800033	1.58415500
6.86900033	1.58415500
6.87000033	1.60197800
6.87100033	1.60197800
6.87200033	1.60197800
6.87300033	1.60197800
6.87400033	1.60197800
6.87500033	1.60197800
6.87600033	1.60197800
6.87700033	1.63756200
6.87800033	1.67314700
6.87900033	1.67314700
6.88000033	1.67314700
6.88100033	1.67314700
6.88200033	1.67314700
6.88300033	1.63756200
6.88400033	1.69097000
6.88500033	1.67314700
6.88600033	1.70879200
6.88700033	1.70879200
6.88800033	1.69097000
6.88900033	1.70879200
6.89000033	1.69097000
6.89100033	1.69097000
6.89200033	1.69097000
6.89300033	1.69097000
6.89400033	1.69097000
6.89500033	1.69097000
6.89600033	1.69097000
6.89700033	1.69097000
6.89800033	1.69097000
6.89900033	1.69097000
6.90000033	1.67314700
6.90100033	1.67314700
6.90200033	1.67314700
6.90300033	1.65538500
6.90400033	1.67314700
6.90500033	1.67314700
6.90600033	1.65538500
6.90700033	1.65538500
6.90800033	1.63756200
6.90900033	1.63756200
6.91000033	1.65538500
6.91100033	1.65538500
6.91200033	1.63756200
6.91300033	1.65538500
6.91400033	1.67314700
6.91500033	1.63756200
6.91600033	1.67314700
6.91700033	1.65538500
6.91800033	1.65538500
6.91900033	1.67314700
6.92000033	1.63756200
6.92100033	1.67314700
6.92200033	1.63756200
6.92300033	1.63756200
6.92400033	1.58415500
6.92500033	1.56639300
6.92600033	1.56639300
6.92700033	1.56639300
6.92800033	1.56639300
6.92900033	1.58415500
6.93000033	1.61973900
6.93100033	1.60197800
6.93200033	1.61973900
6.93300033	1.63756200
6.93400033	1.61973900
6.93500033	1.69097000
6.93600033	1.70879200
6.93700033	1.69097000
6.93800033	1.69097000
6.93900033	1.69097000
6.94000033	1.67314700
6.94100033	1.69097000
6.94200033	1.67314700
6.94300033	1.67314700
6.94400033	1.67314700
6.94500033	1.67314700
6.94600033	1.63756200
6.94700033	1.65538500
6.94800033	1.65538500
6.94900033	1.63756200
6.95000033	1.63756200
6.95100033	1.58415500
6.95200033	1.56639300
6.95300033	1.60197800
6.95400033	1.60197800
6.95500033	1.61973900
6.95600033	1.61973900
6.95700033	1.69097000
6.95800033	1.69097000
6.95900033	1.70879200
6.96000033	1.69097000
6.96100033	1.70879200
6.96200033	1.70879200
6.96300033	1.69097000
6.96400033	1.70879200
6.96500033	1.70879200
6.96600033	1.69097000
6.96700033	1.69097000
6.96800033	1.69097000
6.96900033	1.67314700
6.97000033	1.67314700
6.97100033	1.65538500
6.97200033	1.63756200
6.97300033	1.63756200
6.97400033	1.63756200
6.97500033	1.63756200
6.97600033	1.61973900
6.97700033	1.54857000
6.97800033	1.53074700
6.97900033	1.54857000
6.98000033	1.54857000
6.98100033	1.53074700
6.98200033	1.54857000
6.98300033	1.53074700
6.98400033	1.53074700
6.98500033	1.53074700
6.98600033	1.53074700
6.98700033	1.54857000
6.98800033	1.54857000
6.98900033	1.54857000
6.99000033	1.54857000
6.99100033	1.54857000
6.99200033	1.54857000
6.99300033	1.54857000
6.99400033	1.54857000
6.99500033	1.54857000
6.99600033	1.56639300
6.99700033	1.56639300
6.99800033	1.54857000
6.99900033	1.56639300
7.00000033	1.56639300
7.00100033	1.54857000
7.00200033	1.56639300
7.00300033	1.58415500
7.00400033	1.56639300
7.00500033	1.56639300
7.00600033	1.56639300
7.00700033	1.54857000
7.00800033	1.56639300
7.00900033	1.56639300
7.01000033	1.56639300
7.01100033	1.56639300
7.01200033	1.56639300
7.01300033	1.56639300
7.01400033	1.56639300
7.01500033	1.56639300
7.01600033	1.54857000
7.01700033	1.56639300
7.01800033	1.56639300
7.01900033	1.56639300
7.02000033	1.56639300
7.02100033	1.56639300
7.02200033	1.54857000
7.02300033	1.56639300
7.02400033	1.56639300
7.02500033	1.53074700
7.02600033	1.56639300
7.02700033	1.56639300
7.02800033	1.53074700
7.02900033	1.56639300
7.03000033	1.54857000
7.03100033	1.54857000
7.03200033	1.54857000
7.03300033	1.54857000
7.03400033	1.54857000
7.03500033	1.54857000
7.03600033	1.53074700
7.03700033	1.51298600
7.03800033	1.51298600
7.03900033	1.49516300
7.04000033	1.49516300
7.04100033	1.49516300
7.04200033	1.49516300
7.04300033	1.49516300
7.04400033	1.47734000
7.04500033	1.45957800
7.04600033	1.47734000
7.04700033	1.47734000
7.04800033	1.45957800
7.04900033	1.49516300
7.05000033	1.49516300
7.05100033	1.53074700
7.05200033	1.51298600
7.05300033	1.49516300
7.05400034	1.49516300
7.05500034	1.49516300
7.05600034	1.47734000
7.05700034	1.47734000
7.05800034	1.49516300
7.05900034	1.47734000
7.06000034	1.47734000
7.06100034	1.47734000
7.06200034	1.45957800
7.06300034	1.45957800
7.06400034	1.49516300
7.06500034	1.44175500
7.06600034	1.45957800
7.06700034	1.45957800
7.06800034	1.47734000
7.06900034	1.49516300
7.07000034	1.47734000
7.07100034	1.49516300
7.07200034	1.51298600
7.07300034	1.49516300
7.07400034	1.51298600
7.07500034	1.54857000
7.07600034	1.54857000
7.07700034	1.53074700
7.07800034	1.56639300
7.07900034	1.54857000
7.08000034	1.56639300
7.08100034	1.56639300
7.08200034	1.56639300
7.08300034	1.58415500
7.08400034	1.56639300
7.08500034	1.56639300
7.08600034	1.58415500
7.08700034	1.56639300
7.08800034	1.56639300
7.08900034	1.56639300
7.09000034	1.56639300
7.09100034	1.56639300
7.09200034	1.56639300
7.09300034	1.56639300
7.09400034	1.56639300
7.09500034	1.56639300
7.09600034	1.56639300
7.09700034	1.56639300
7.09800034	1.56639300
7.09900034	1.56639300
7.10000034	1.53074700
7.10100034	1.53074700
7.10200034	1.53074700
7.10300034	1.53074700
7.10400034	1.53074700
7.10500034	1.53074700
7.10600034	1.49516300
7.10700034	1.54857000
7.10800034	1.53074700
7.10900034	1.54857000
7.11000034	1.54857000
7.11100034	1.54857000
7.11200034	1.54857000
7.11300034	1.56639300
7.11400034	1.56639300
7.11500034	1.58415500
7.11600034	1.58415500
7.11700034	1.60197800
7.11800034	1.61973900
7.11900034	1.61973900
7.12000034	1.60197800
7.12100034	1.61973900
7.12200034	1.63756200
7.12300034	1.63756200
7.12400034	1.63756200
7.12500034	1.63756200
7.12600034	1.63756200
7.12700034	1.63756200
7.12800034	1.63756200
7.12900034	1.63756200
7.13000034	1.63756200
7.13100034	1.61973900
7.13200034	1.60197800
7.13300034	1.61973900
7.13400034	1.58415500
7.13500034	1.56639300
7.13600034	1.56639300
7.13700034	1.56639300
7.13800034	1.54857000
7.13900034	1.56639300
7.14000034	1.54857000
7.14100034	1.56639300
7.14200034	1.56639300
7.14300034	1.54857000
7.14400034	1.56639300
7.14500034	1.56639300
7.14600034	1.56639300
7.14700034	1.54857000
7.14800034	1.56639300
7.14900034	1.56639300
7.15000034	1.58415500
7.15100034	1.56639300
7.15200034	1.60197800
7.15300034	1.60197800
7.15400034	1.60197800
7.15500034	1.60197800
7.15600034	1.61973900
7.15700034	1.61973900
7.15800034	1.61973900
7.15900034	1.61973900
7.16000034	1.60197800
7.16100034	1.61973900
7.16200034	1.60197800
7.16300034	1.58415500
7.16400034	1.60197800
7.16500034	1.60197800
7.16600034	1.56639300
7.16700034	1.58415500
7.16800034	1.60197800
7.16900034	1.56639300
7.17000034	1.58415500
7.17100034	1.58415500
7.17200034	1.56639300
7.17300034	1.60197800
7.17400034	1.58415500
7.17500034	1.58415500
7.17600034	1.58415500
7.17700034	1.60197800
7.17800034	1.60197800
7.17900034	1.60197800
7.18000034	1.60197800
7.18100034	1.61973900
7.18200034	1.60197800
7.18300034	1.60197800
7.18400034	1.61973900
7.18500034	1.61973900
7.18600034	1.61973900
7.18700034	1.60197800
7.18800034	1.61973900
7.18900034	1.60197800
7.19000034	1.60197800
7.19100034	1.60197800
7.19200034	1.58415500
7.19300034	1.58415500
7.19400034	1.60197800
7.19500034	1.60197800
7.19600034	1.60197800
7.19700034	1.60197800
7.19800034	1.60197800
7.19900034	1.60197800
7.20000034	1.61973900
7.20100034	1.60197800
7.20200034	1.60197800
7.20300034	1.61973900
7.20400034	1.60197800
7.20500034	1.61973900
7.20600034	1.60197800
7.20700034	1.60197800
7.20800034	1.58415500
7.20900034	1.60197800
7.21000034	1.60197800
7.21100034	1.60197800
7.21200034	1.60197800
7.21300034	1.60197800
7.21400034	1.61973900
7.21500034	1.60197800
7.21600034	1.60197800
7.21700034	1.61973900
7.21800034	1.61973900
7.21900034	1.61973900
7.22000034	1.61973900
7.22100034	1.60197800
7.22200034	1.60197800
7.22300034	1.60197800
7.22400034	1.58415500
7.22500034	1.58415500
7.22600034	1.60197800
7.22700034	1.60197800
7.22800034	1.61973900
7.22900034	1.60197800
7.23000034	1.61973900
7.23100034	1.61973900
7.23200034	1.63756200
7.23300034	1.60197800
7.23400034	1.61973900
7.23500034	1.61973900
7.23600034	1.61973900
7.23700034	1.60197800
7.23800034	1.60197800
7.23900034	1.60197800
7.24000034	1.58415500
7.24100034	1.60197800
7.24200034	1.58415500
7.24300034	1.60197800
7.24400034	1.60197800
7.24500034	1.60197800
7.24600034	1.60197800
7.24700034	1.61973900
7.24800034	1.60197800
7.24900034	1.61973900
7.25000034	1.60197800
7.25100034	1.60197800
7.25200034	1.60197800
7.25300034	1.61973900
7.25400034	1.60197800
7.25500034	1.60197800
7.25600034	1.60197800
7.25700034	1.60197800
7.25800034	1.61973900
7.25900034	1.61973900
7.26000034	1.60197800
7.26100034	1.60197800
7.26200034	1.61973900
7.26300034	1.60197800
7.26400035	1.61973900
7.26500035	1.60197800
7.26600035	1.60197800
7.26700035	1.60197800
7.26800035	1.61973900
7.26900035	1.60197800
7.27000035	1.61973900
7.27100035	1.61973900
7.27200035	1.61973900
7.27300035	1.61973900
7.27400035	1.61973900
7.27500035	1.60197800
7.27600035	1.60197800
7.27700035	1.60197800
7.27800035	1.61973900
7.27900035	1.63756200
7.28000035	1.60197800
7.28100035	1.61973900
7.28200035	1.61973900
7.28300035	1.60197800
7.28400035	1.61973900
7.28500035	1.61973900
7.28600035	1.60197800
7.28700035	1.61973900
7.28800035	1.61973900
7.28900035	1.60197800
7.29000035	1.61973900
7.29100035	1.60197800
7.29200035	1.60197800
7.29300035	1.60197800
7.29400035	1.60197800
7.29500035	1.60197800
7.29600035	1.60197800
7.29700035	1.60197800
7.29800035	1.56639300
7.29900035	1.60197800
7.30000035	1.60197800
7.30100035	1.61973900
7.30200035	1.61973900
7.30300035	1.60197800
7.30400035	1.61973900
7.30500035	1.63756200
7.30600035	1.61973900
7.30700035	1.63756200
7.30800035	1.63756200
7.30900035	1.61973900
7.31000035	1.63756200
7.31100035	1.63756200
7.31200035	1.61973900
7.31300035	1.63756200
7.31400035	1.61973900
7.31500035	1.61973900
7.31600035	1.61973900
7.31700035	1.61973900
7.31800035	1.60197800
7.31900035	1.63756200
7.32000035	1.63756200
7.32100035	1.61973900
7.32200035	1.60197800
7.32300035	1.61973900
7.32400035	1.61973900
7.32500035	1.61973900
7.32600035	1.61973900
7.32700035	1.60197800
7.32800035	1.60197800
7.32900035	1.60197800
7.33000035	1.58415500
7.33100035	1.60197800
7.33200035	1.60197800
7.33300035	1.63756200
7.33400035	1.61973900
7.33500035	1.61973900
7.33600035	1.61973900
7.33700035	1.61973900
7.33800035	1.60197800
7.33900035	1.63756200
7.34000035	1.63756200
7.34100035	1.60197800
7.34200035	1.61973900
7.34300035	1.63756200
7.34400035	1.61973900
7.34500035	1.61973900
7.34600035	1.63756200
7.34700035	1.61973900
7.34800035	1.61973900
7.34900035	1.61973900
7.35000035	1.61973900
7.35100035	1.61973900
7.35200035	1.61973900
7.35300035	1.61973900
7.35400035	1.63756200
7.35500035	1.61973900
7.35600035	1.61973900
7.35700035	1.61973900
7.35800035	1.60197800
7.35900035	1.61973900
7.36000035	1.61973900
7.36100035	1.60197800
7.36200035	1.63756200
7.36300035	1.61973900
7.36400035	1.61973900
7.36500035	1.63756200
7.36600035	1.63756200
7.36700035	1.60197800
7.36800035	1.63756200
7.36900035	1.61973900
7.37000035	1.61973900
7.37100035	1.63756200
7.37200035	1.63756200
7.37300035	1.61973900
7.37400035	1.63756200
7.37500035	1.61973900
7.37600035	1.61973900
7.37700035	1.61973900
7.37800035	1.61973900
7.37900035	1.60197800
7.38000035	1.60197800
7.38100035	1.61973900
7.38200035	1.61973900
7.38300035	1.61973900
7.38400035	1.63756200
7.38500035	1.61973900
7.38600035	1.61973900
7.38700035	1.61973900
7.38800035	1.61973900
7.38900035	1.61973900
7.39000035	1.63756200
7.39100035	1.60197800
7.39200035	1.61973900
7.39300035	1.61973900
7.39400035	1.60197800
7.39500035	1.61973900
7.39600035	1.61973900
7.39700035	1.61973900
7.39800035	1.61973900
7.39900035	1.61973900
7.40000035	1.60197800
7.40100035	1.61973900
7.40200035	1.61973900
7.40300035	1.60197800
7.40400035	1.61973900
7.40500035	1.61973900
7.40600035	1.61973900
7.40700035	1.61973900
7.40800035	1.61973900
7.40900035	1.61973900
7.41000035	1.63756200
7.41100035	1.60197800
7.41200035	1.61973900
7.41300035	1.63756200
7.41400035	1.61973900
7.41500035	1.61973900
7.41600035	1.61973900
7.41700035	1.60197800
7.41800035	1.61973900
7.41900035	1.60197800
7.42000035	1.60197800
7.42100035	1.61973900
7.42200035	1.60197800
7.42300035	1.60197800
7.42400035	1.61973900
7.42500035	1.60197800
7.42600035	1.58415500
7.42700035	1.61973900
7.42800035	1.60197800
7.42900035	1.61973900
7.43000035	1.60197800
7.43100035	1.61973900
7.43200035	1.63756200
7.43300035	1.61973900
7.43400035	1.61973900
7.43500035	1.61973900
7.43600035	1.61973900
7.43700035	1.61973900
7.43800035	1.61973900
7.43900035	1.60197800
7.44000035	1.58415500
7.44100035	1.61973900
7.44200035	1.60197800
7.44300035	1.61973900
7.44400035	1.63756200
7.44500035	1.63756200
7.44600035	1.61973900
7.44700035	1.63756200
7.44800035	1.60197800
7.44900035	1.61973900
7.45000035	1.61973900
7.45100035	1.61973900
7.45200035	1.63756200
7.45300035	1.63756200
7.45400035	1.61973900
7.45500035	1.61973900
7.45600035	1.63756200
7.45700035	1.61973900
7.45800035	1.63756200
7.45900035	1.63756200
7.46000035	1.61973900
7.46100035	1.63756200
7.46200035	1.60197800
7.46300035	1.61973900
7.46400035	1.60197800
7.46500035	1.61973900
7.46600035	1.60197800
7.46700035	1.60197800
7.46800035	1.63756200
7.46900035	1.61973900
7.47000035	1.60197800
7.47100035	1.61973900
7.47200035	1.61973900
7.47300035	1.61973900
7.47400035	1.63756200
7.47500036	1.61973900
7.47600036	1.61973900
7.47700036	1.63756200
7.47800036	1.60197800
7.47900036	1.61973900
7.48000036	1.61973900
7.48100036	1.61973900
7.48200036	1.61973900
7.48300036	1.61973900
7.48400036	1.61973900
7.48500036	1.61973900
7.48600036	1.63756200
7.48700036	1.60197800
7.48800036	1.61973900
7.48900036	1.63756200
7.49000036	1.61973900
7.49100036	1.61973900
7.49200036	1.61973900
7.49300036	1.58415500
7.49400036	1.61973900
7.49500036	1.61973900
7.49600036	1.63756200
7.49700036	1.63756200
7.49800036	1.61973900
7.49900036	1.61973900
7.50000036	1.63756200
7.50100036	1.61973900
7.50200036	1.61973900
7.50300036	1.61973900
7.50400036	1.61973900
7.50500036	1.61973900
7.50600036	1.63756200
7.50700036	1.61973900
7.50800036	1.61973900
7.50900036	1.61973900
7.51000036	1.60197800
7.51100036	1.60197800
7.51200036	1.60197800
7.51300036	1.60197800
7.51400036	1.61973900
7.51500036	1.60197800
7.51600036	1.58415500
7.51700036	1.60197800
7.51800036	1.60197800
7.51900036	1.61973900
7.52000036	1.61973900
7.52100036	1.61973900
7.52200036	1.61973900
7.52300036	1.61973900
7.52400036	1.61973900
7.52500036	1.61973900
7.52600036	1.61973900
7.52700036	1.60197800
7.52800036	1.61973900
7.52900036	1.61973900
7.53000036	1.60197800
7.53100036	1.61973900
7.53200036	1.63756200
7.53300036	1.60197800
7.53400036	1.61973900
7.53500036	1.63756200
7.53600036	1.60197800
7.53700036	1.61973900
7.53800036	1.63756200
7.53900036	1.60197800
7.54000036	1.61973900
7.54100036	1.61973900
7.54200036	1.60197800
7.54300036	1.61973900
7.54400036	1.63756200
7.54500036	1.61973900
7.54600036	1.61973900
7.54700036	1.61973900
7.54800036	1.61973900
7.54900036	1.60197800
7.55000036	1.60197800
7.55100036	1.61973900
7.55200036	1.60197800
7.55300036	1.61973900
7.55400036	1.58415500
7.55500036	1.60197800
7.55600036	1.60197800
7.55700036	1.58415500
7.55800036	1.60197800
7.55900036	1.60197800
7.56000036	1.60197800
7.56100036	1.61973900
7.56200036	1.61973900
7.56300036	1.60197800
7.56400036	1.60197800
7.56500036	1.61973900
7.56600036	1.56639300
7.56700036	1.60197800
7.56800036	1.60197800
7.56900036	1.58415500
7.57000036	1.60197800
7.57100036	1.60197800
7.57200036	1.58415500
7.57300036	1.61973900
7.57400036	1.60197800
7.57500036	1.61973900
7.57600036	1.61973900
7.57700036	1.61973900
7.57800036	1.61973900
7.57900036	1.61973900
7.58000036	1.61973900
7.58100036	1.61973900
7.58200036	1.61973900
7.58300036	1.60197800
7.58400036	1.61973900
7.58500036	1.63756200
7.58600036	1.61973900
7.58700036	1.61973900
7.58800036	1.63756200
7.58900036	1.61973900
7.59000036	1.61973900
7.59100036	1.63756200
7.59200036	1.61973900
7.59300036	1.61973900
7.59400036	1.63756200
7.59500036	1.60197800
7.59600036	1.61973900
7.59700036	1.63756200
7.59800036	1.60197800
7.59900036	1.61973900
7.60000036	1.63756200
7.60100036	1.60197800
7.60200036	1.61973900
7.60300036	1.61973900
7.60400036	1.61973900
7.60500036	1.61973900
7.60600036	1.63756200
7.60700036	1.61973900
7.60800036	1.63756200
7.60900036	1.61973900
7.61000036	1.63756200
7.61100036	1.63756200
7.61200036	1.61973900
7.61300036	1.61973900
7.61400036	1.69097000
7.61500036	1.61973900
7.61600036	1.69097000
7.61700036	1.63756200
7.61800036	1.67314700
7.61900036	1.69097000
7.62000036	1.67314700
7.62100036	1.67314700
7.62200036	1.67314700
7.62300036	1.67314700
7.62400036	1.67314700
7.62500036	1.67314700
7.62600036	1.69097000
7.62700036	1.67314700
7.62800036	1.67314700
7.62900036	1.67314700
7.63000036	1.67314700
7.63100036	1.67314700
7.63200036	1.67314700
7.63300036	1.67314700
7.63400036	1.67314700
7.63500036	1.67314700
7.63600036	1.65538500
7.63700036	1.67314700
7.63800036	1.67314700
7.63900036	1.63756200
7.64000036	1.65538500
7.64100036	1.65538500
7.64200036	1.63756200
7.64300036	1.63756200
7.64400036	1.65538500
7.64500036	1.63756200
7.64600036	1.63756200
7.64700036	1.63756200
7.64800036	1.63756200
7.64900036	1.65538500
7.65000036	1.65538500
7.65100036	1.63756200
7.65200036	1.63756200
7.65300036	1.65538500
7.65400036	1.63756200
7.65500036	1.65538500
7.65600036	1.63756200
7.65700036	1.63756200
7.65800036	1.63756200
7.65900036	1.65538500
7.66000036	1.65538500
7.66100036	1.65538500
7.66200036	1.65538500
7.66300036	1.65538500
7.66400036	1.65538500
7.66500036	1.63756200
7.66600036	1.65538500
7.66700036	1.65538500
7.66800036	1.63756200
7.66900036	1.65538500
7.67000036	1.65538500
7.67100036	1.63756200
7.67200036	1.63756200
7.67300036	1.65538500
7.67400036	1.63756200
7.67500036	1.63756200
7.67600036	1.65538500
7.67700036	1.63756200
7.67800036	1.63756200
7.67900036	1.65538500
7.68000036	1.63756200
7.68100036	1.63756200
7.68200036	1.63756200
7.68300036	1.63756200
7.68400036	1.63756200
7.68500037	1.65538500
7.68600037	1.63756200
7.68700037	1.63756200
7.68800037	1.63756200
7.68900037	1.63756200
7.69000037	1.63756200
7.69100037	1.63756200
7.69200037	1.63756200
7.69300037	1.63756200
7.69400037	1.63756200
7.69500037	1.61973900
7.69600037	1.63756200
7.69700037	1.63756200
7.69800037	1.54857000
7.69900037	1.63756200
7.70000037	1.56639300
7.70100037	1.61973900
7.70200037	1.63756200
7.70300037	1.63756200
7.70400037	1.61973900
7.70500037	1.61973900
7.70600037	1.56639300
7.70700037	1.61973900
7.70800037	1.54857000
7.70900037	1.63756200
7.71000037	1.54857000
7.71100037	1.63756200
7.71200037	1.63756200
7.71300037	1.60197800
7.71400037	1.63756200
7.71500037	1.63756200
7.71600037	1.63756200
7.71700037	1.63756200
7.71800037	1.63756200
7.71900037	1.63756200
7.72000037	1.63756200
7.72100037	1.56639300
7.72200037	1.61973900
7.72300037	1.60197800
7.72400037	1.63756200
7.72500037	1.63756200
7.72600037	1.63756200
7.72700037	1.63756200
7.72800037	1.65538500
7.72900037	1.65538500
7.73000037	1.63756200
7.73100037	1.65538500
7.73200037	1.63756200
7.73300037	1.63756200
7.73400037	1.58415500
7.73500037	1.63756200
7.73600037	1.56639300
7.73700037	1.63756200
7.73800037	1.58415500
7.73900037	1.63756200
7.74000037	1.63756200
7.74100037	1.56639300
7.74200037	1.63756200
7.74300037	1.56639300
7.74400037	1.63756200
7.74500037	1.56639300
7.74600037	1.56639300
7.74700037	1.56639300
7.74800037	1.56639300
7.74900037	1.56639300
7.75000037	1.58415500
7.75100037	1.56639300
7.75200037	1.58415500
7.75300037	1.58415500
7.75400037	1.56639300
7.75500037	1.56639300
7.75600037	1.58415500
7.75700037	1.54857000
7.75800037	1.56639300
7.75900037	1.56639300
7.76000037	1.56639300
7.76100037	1.58415500
7.76200037	1.56639300
7.76300037	1.54857000
7.76400037	1.58415500
7.76500037	1.56639300
7.76600037	1.56639300
7.76700037	1.56639300
7.76800037	1.56639300
7.76900037	1.54857000
7.77000037	1.56639300
7.77100037	1.56639300
7.77200037	1.56639300
7.77300037	1.58415500
7.77400037	1.58415500
7.77500037	1.58415500
7.77600037	1.56639300
7.77700037	1.58415500
7.77800037	1.60197800
7.77900037	1.58415500
7.78000037	1.56639300
7.78100037	1.58415500
7.78200037	1.58415500
7.78300037	1.54857000
7.78400037	1.56639300
7.78500037	1.58415500
7.78600037	1.54857000
7.78700037	1.56639300
7.78800037	1.58415500
7.78900037	1.56639300
7.79000037	1.56639300
7.79100037	1.56639300
7.79200037	1.56639300
7.79300037	1.56639300
7.79400037	1.58415500
7.79500037	1.54857000
7.79600037	1.56639300
7.79700037	1.58415500
7.79800037	1.54857000
7.79900037	1.58415500
7.80000037	1.58415500
7.80100037	1.60197800
7.80200037	1.58415500
7.80300037	1.60197800
7.80400037	1.60197800
7.80500037	1.58415500
7.80600037	1.56639300
7.80700037	1.60197800
7.80800037	1.60197800
7.80900037	1.56639300
7.81000037	1.60197800
7.81100037	1.58415500
7.81200037	1.56639300
7.81300037	1.60197800
7.81400037	1.58415500
7.81500037	1.56639300
7.81600037	1.60197800
7.81700037	1.58415500
7.81800037	1.56639300
7.81900037	1.60197800
7.82000037	1.58415500
7.82100037	1.56639300
7.82200037	1.60197800
7.82300037	1.60197800
7.82400037	1.56639300
7.82500037	1.58415500
7.82600037	1.58415500
7.82700037	1.56639300
7.82800037	1.56639300
7.82900037	1.60197800
7.83000037	1.60197800
7.83100037	1.60197800
7.83200037	1.61973900
7.83300037	1.60197800
7.83400037	1.58415500
7.83500037	1.60197800
7.83600037	1.58415500
7.83700037	1.60197800
7.83800037	1.60197800
7.83900037	1.56639300
7.84000037	1.60197800
7.84100037	1.60197800
7.84200037	1.61973900
7.84300037	1.61973900
7.84400037	1.60197800
7.84500037	1.61973900
7.84600037	1.61973900
7.84700037	1.60197800
7.84800037	1.61973900
7.84900037	1.61973900
7.85000037	1.60197800
7.85100037	1.61973900
7.85200037	1.61973900
7.85300037	1.60197800
7.85400037	1.63756200
7.85500037	1.61973900
7.85600037	1.60197800
7.85700037	1.60197800
7.85800037	1.60197800
7.85900037	1.60197800
7.86000037	1.60197800
7.86100037	1.60197800
7.86200037	1.60197800
7.86300037	1.61973900
7.86400037	1.61973900
7.86500037	1.60197800
7.86600037	1.60197800
7.86700037	1.60197800
7.86800037	1.60197800
7.86900037	1.61973900
7.87000037	1.60197800
7.87100037	1.58415500
7.87200037	1.60197800
7.87300037	1.60197800
7.87400037	1.60197800
7.87500037	1.60197800
7.87600037	1.60197800
7.87700037	1.56639300
7.87800037	1.60197800
7.87900037	1.60197800
7.88000037	1.60197800
7.88100037	1.61973900
7.88200037	1.60197800
7.88300037	1.58415500
7.88400037	1.60197800
7.88500037	1.60197800
7.88600037	1.60197800
7.88700037	1.60197800
7.88800037	1.60197800
7.88900037	1.60197800
7.89000037	1.61973900
7.89100037	1.60197800
7.89200037	1.63756200
7.89300037	1.61973900
7.89400037	1.60197800
7.89500037	1.61973900
7.89600038	1.61973900
7.89700038	1.60197800
7.89800038	1.61973900
7.89900038	1.61973900
7.90000038	1.60197800
7.90100038	1.61973900
7.90200038	1.61973900
7.90300038	1.61973900
7.90400038	1.60197800
7.90500038	1.61973900
7.90600038	1.60197800
7.90700038	1.60197800
7.90800038	1.61973900
7.90900038	1.58415500
7.91000038	1.61973900
7.91100038	1.60197800
7.91200038	1.60197800
7.91300038	1.61973900
7.91400038	1.61973900
7.91500038	1.61973900
7.91600038	1.60197800
7.91700038	1.60197800
7.91800038	1.60197800
7.91900038	1.61973900
7.92000038	1.60197800
7.92100038	1.63756200
7.92200038	1.63756200
7.92300038	1.61973900
7.92400038	1.61973900
7.92500038	1.63756200
7.92600038	1.61973900
7.92700038	1.61973900
7.92800038	1.61973900
7.92900038	1.60197800
7.93000038	1.61973900
7.93100038	1.63756200
7.93200038	1.60197800
7.93300038	1.60197800
7.93400038	1.61973900
7.93500038	1.60197800
7.93600038	1.61973900
7.93700038	1.61973900
7.93800038	1.60197800
7.93900038	1.60197800
7.94000038	1.60197800
7.94100038	1.60197800
7.94200038	1.61973900
7.94300038	1.60197800
7.94400038	1.61973900
7.94500038	1.61973900
7.94600038	1.61973900
7.94700038	1.60197800
7.94800038	1.63756200
7.94900038	1.60197800
7.95000038	1.61973900
7.95100038	1.61973900
7.95200038	1.60197800
7.95300038	1.61973900
7.95400038	1.61973900
7.95500038	1.60197800
7.95600038	1.61973900
7.95700038	1.60197800
7.95800038	1.60197800
7.95900038	1.61973900
7.96000038	1.61973900
7.96100038	1.60197800
7.96200038	1.60197800
7.96300038	1.60197800
7.96400038	1.60197800
7.96500038	1.60197800
7.96600038	1.61973900
7.96700038	1.60197800
7.96800038	1.61973900
7.96900038	1.61973900
7.97000038	1.60197800
7.97100038	1.61973900
7.97200038	1.60197800
7.97300038	1.60197800
7.97400038	1.61973900
7.97500038	1.60197800
7.97600038	1.63756200
7.97700038	1.60197800
7.97800038	1.60197800
7.97900038	1.63756200
7.98000038	1.61973900
7.98100038	1.60197800
7.98200038	1.63756200
7.98300038	1.61973900
7.98400038	1.60197800
7.98500038	1.63756200
7.98600038	1.61973900
7.98700038	1.60197800
7.98800038	1.61973900
7.98900038	1.61973900
7.99000038	1.61973900
7.99100038	1.61973900
7.99200038	1.63756200
7.99300038	1.60197800
7.99400038	1.61973900
7.99500038	1.63756200
7.99600038	1.61973900
7.99700038	1.61973900
7.99800038	1.63756200
7.99900038	1.61973900
8.00000038	1.60197800
8.00100038	1.61973900
8.00200038	1.61973900
8.00300038	1.61973900
8.00400038	1.61973900
8.00500038	1.60197800
8.00600038	1.61973900
8.00700038	1.60197800
8.00800038	1.61973900
8.00900038	1.63756200
8.01000038	1.61973900
8.01100038	1.60197800
8.01200038	1.61973900
8.01300038	1.60197800
8.01400038	1.60197800
8.01500038	1.61973900
8.01600038	1.60197800
8.01700038	1.60197800
8.01800038	1.60197800
8.01900038	1.60197800
8.02000038	1.60197800
8.02100038	1.63756200
8.02200038	1.61973900
8.02300038	1.60197800
8.02400038	1.60197800
8.02500038	1.61973900
8.02600038	1.61973900
8.02700038	1.60197800
8.02800038	1.61973900
8.02900038	1.61973900
8.03000038	1.61973900
8.03100038	1.61973900
8.03200038	1.61973900
8.03300038	1.61973900
8.03400038	1.61973900
8.03500038	1.61973900
8.03600038	1.61973900
8.03700038	1.60197800
8.03800038	1.61973900
8.03900038	1.61973900
8.04000038	1.60197800
8.04100038	1.61973900
8.04200038	1.61973900
8.04300038	1.60197800
8.04400038	1.63756200
8.04500038	1.61973900
8.04600038	1.60197800
8.04700038	1.61973900
8.04800038	1.61973900
8.04900038	1.60197800
8.05000038	1.61973900
8.05100038	1.61973900
8.05200038	1.60197800
8.05300038	1.61973900
8.05400038	1.61973900
8.05500038	1.60197800
8.05600038	1.61973900
8.05700038	1.61973900
8.05800038	1.61973900
8.05900038	1.61973900
8.06000038	1.60197800
8.06100038	1.63756200
8.06200038	1.61973900
8.06300038	1.61973900
8.06400038	1.61973900
8.06500038	1.63756200
8.06600038	1.60197800
8.06700038	1.61973900
8.06800038	1.63756200
8.06900038	1.60197800
8.07000038	1.61973900
8.07100038	1.61973900
8.07200038	1.60197800
8.07300038	1.61973900
8.07400038	1.61973900
8.07500038	1.60197800
8.07600038	1.61973900
8.07700038	1.61973900
8.07800038	1.61973900
8.07900038	1.61973900
8.08000038	1.61973900
8.08100038	1.60197800
8.08200038	1.63756200
8.08300038	1.61973900
8.08400038	1.61973900
8.08500038	1.60197800
8.08600038	1.61973900
8.08700038	1.61973900
8.08800038	1.61973900
8.08900038	1.61973900
8.09000038	1.61973900
8.09100038	1.61973900
8.09200038	1.61973900
8.09300038	1.61973900
8.09400038	1.63756200
8.09500038	1.60197800
8.09600038	1.61973900
8.09700038	1.63756200
8.09800038	1.60197800
8.09900038	1.63756200
8.10000038	1.61973900
8.10100038	1.61973900
8.10200038	1.61973900
8.10300038	1.63756200
8.10400038	1.60197800
8.10500038	1.61973900
8.10600039	1.61973900
8.10700039	1.61973900
8.10800039	1.61973900
8.10900039	1.61973900
8.11000039	1.60197800
8.11100039	1.61973900
8.11200039	1.65538500
8.11300039	1.61973900
8.11400039	1.61973900
8.11500039	1.61973900
8.11600039	1.60197800
8.11700039	1.63756200
8.11800039	1.61973900
8.11900039	1.60197800
8.12000039	1.61973900
8.12100039	1.61973900
8.12200039	1.61973900
8.12300039	1.63756200
8.12400039	1.61973900
8.12500039	1.60197800
8.12600039	1.63756200
8.12700039	1.61973900
8.12800039	1.61973900
8.12900039	1.69097000
8.13000039	1.61973900
8.13100039	1.67314700
8.13200039	1.63756200
8.13300039	1.67314700
8.13400039	1.61973900
8.13500039	1.77996200
8.13600039	1.67314700
8.13700039	1.61973900
8.13800039	1.67314700
8.13900039	1.60197800
8.14000039	1.67314700
8.14100039	1.61973900
8.14200039	1.67314700
8.14300039	1.60197800
8.14400039	1.61973900
8.14500039	1.60197800
